Timestamp,AccX,AccY,AccZ,GyroX,GyroY,GyroZ,MagnX,MagnY,MagnZ
29049144:11:790,-3.494,2.131,10.309,4.518,1.414,-3.562,2.976,2.419,0.145
29049144:11:790,-0.729,-4.886,12.557,-3.07,1.709,-1.186,2.047,4.407,-2.569
29049144:11:790,0.809,1.465,5.194,2.298,1.925,0.97,-4.469,0.216,0.435
29049144:11:790,4.778,3.403,12.689,-3.533,4.883,-3.782,-2.409,0.121,0.329
29049144:11:790,2.271,-0.169,7.122,3.386,0.22,-0.337,2.153,-2.284,1.081
29049144:11:790,1.432,3.169,5.89,4.905,-2.903,-3.352,-2.93,-0.795,-3.482
29049144:11:790,-3.493,4.445,12.787,-4.342,3.778,2.541,-3.067,-4.364,-1.253
29049144:11:790,0.761,-2.95,12.474,2.422,2.452,1.057,-2.236,4.488,3.592
29049144:11:790,-3.338,-2.281,12.297,0.017,2.967,4.919,0.635,-1.814,1.495
29049144:11:790,-1.273,-0.088,6.179,-4.097,-3.174,3.14,1.617,-4.331,-1.314
29049144:11:790,-3.448,1.58,5.899,-0.698,0.921,0.527,0.755,-4.037,-2.389
29049144:11:790,-0.557,1.82,14.589,-4.929,2.257,-1.911,1.087,2.275,3.857
29049144:11:790,0.495,0.048,14.798,0.11,-3.222,-4.399,-0.909,-4.373,4.263
29049144:11:790,-2.076,0.756,11.216,-3.225,3.878,-3.478,1.09,4.022,2.48
29049144:11:790,-1.328,4.986,8.501,-1.322,0.955,-2.568,-3.919,-0.403,3.128
29049144:11:790,-2.562,1.867,6.999,0.457,0.804,-3.298,2.434,2.431,3.1
29049144:11:790,-4.963,2.891,10.132,1.299,1.451,-3.467,-2.088,1.677,-0.579
29049144:11:790,2.232,0.379,13.623,3.814,0.817,-2.214,0.935,4.067,-2.691
29049144:11:790,4.168,-4.721,8.11,3.375,-1.346,3.357,-4.676,-2.566,-1.569
29049144:11:790,4.394,0.777,5.969,-3.588,-4.103,0.167,0.091,4.3,-2.822
29049144:11:790,1.368,-3.501,12.313,-4.572,-3.866,3.182,-4.622,-3.1,-0.985
29049144:11:790,2.453,0.701,10.206,0.352,-2.023,0.602,-4.168,0.025,-4.056
29049144:11:790,0.079,-2.042,8.424,3.752,-4.856,-2.533,2.956,-3.831,-4.27
29049144:11:790,0.692,-4.185,6.524,3.679,2.673,-2.856,-4.557,-0.544,2.144
29049144:11:790,-1.749,-0.676,11.296,3.979,-1.062,-0.128,3.512,-4.385,0.868
29049144:11:790,-3.666,-3.586,10.14,4.939,-3.156,-0.827,-4.619,4.645,4.606
29049144:11:790,-3.763,-2.869,14.211,0.306,-0.609,1.888,-0.766,0.784,-2.635
29049144:11:790,0.382,4.973,13.126,1.339,-2.845,-2.309,3.01,4.069,2.598
29049144:11:790,4.248,3.196,14.544,-0.058,4.752,1.888,-4.846,-1.479,3.493
29049144:11:790,-0.616,0.419,8.383,3.412,-0.8,0.51,-0.768,3.749,1.586
29049144:11:790,2.329,-3.081,8.068,-4.54,0.052,-2.739,3.997,3.552,4.362
29049144:11:790,1.979,-4.63,7.356,1.696,-1.943,0.456,2.39,-2.147,-3.467
29049144:11:790,1.733,-3.701,10.632,1.651,1.279,4.086,-2.398,0.013,-0.941
29049144:11:790,-4.619,-2.983,13.143,0.298,-4.118,-0.246,1.46,3.953,0.679
29049144:11:790,-4.944,1.112,14.242,-3.809,-2.58,1.968,-2.053,-1.402,-3.616
29049144:11:790,1.38,-0.171,6.285,2.993,1.378,-0.93,1.119,-2.059,2.975
29049144:11:790,-2.057,3.706,6.901,4.645,-3.651,-1.231,-2.727,-4.801,-4.279
29049144:11:790,3.689,-0.07,14.767,0.037,0.334,1.64,-4.143,-4.485,0.58
29049144:11:790,4.13,0.639,9.508,-4.34,-0.498,2.826,-3.058,-3.679,1.035
29049144:11:791,4.754,1.363,11.857,0.181,-3.705,-2.332,2.688,2.36,4.379
29049144:11:791,0.519,0.687,12.157,-0.508,-1.048,-2.502,1.434,0.014,4.373
29049144:11:791,4.443,2.033,14.376,1.946,1.925,2.241,-0.074,0.619,-3.435
29049144:11:791,3.504,-0.085,11.264,-3.918,1.698,-1.429,4.327,2.789,0.417
29049144:11:791,-4.441,0.163,8.9,4.802,3.363,-3.918,4.348,1.656,1.024
29049144:11:791,-0.706,-3.289,9.726,2.026,-2.649,-1.593,-4.407,3.744,-2.221
29049144:11:791,3.917,4.637,14.083,-2.602,-1.496,-0.986,-0.376,-3.103,-2.34
29049144:11:791,-0.191,3.201,11.028,-4.515,4.29,4.943,4.82,-4.659,4.483
29049144:11:791,-4.506,-3.455,6.304,-3.432,2.568,3.043,-4.206,-3.398,3.872
29049144:11:791,2.933,2.762,7.596,-2.085,-2.353,-1.224,-0.86,-3.552,3.1
29049144:11:791,2.723,4.755,10.711,4.247,0.703,4.956,-4.662,0.096,-3.439
29049144:11:791,-1.586,-2.124,11.92,0.73,-0.121,0.647,-4.401,-3.971,-4.046
29049144:11:791,-1.457,1.402,13.406,1.293,3.526,-3.661,2.481,-1.554,0.625
29049144:11:791,0.486,-4.479,5.437,4.745,-3.735,-2.121,-4.986,4.381,-2.419
29049144:11:791,2.817,1.403,8.291,-1.426,-1.495,4.023,0.823,-4.173,0.868
29049144:11:791,-4.965,-3.886,12.454,-1.565,3.815,-1.816,-1.449,1.289,-4.295
29049144:11:791,1.657,-3.236,5.463,-1.828,2.687,-4.914,1.133,0.807,2.316
29049144:11:791,3.512,-2.56,5.835,4.611,-1.502,-2.565,-2.563,-3.619,-1.767
29049144:11:791,-0.228,-1.164,6.976,3.509,-1.745,1.654,0.704,4.99,-0.102
29049144:11:791,-1.952,2.995,14.969,1.023,4.632,-2.937,1.609,-0.056,-1.695
29049144:11:791,3.646,0.384,14.546,2.587,-1.401,1.555,-3.947,4.178,-1.285
29049144:11:791,-2.041,4.935,6.558,-0.653,-0.678,-1.131,-1.466,0.033,-4.703
29049144:11:791,0.978,-2.481,7.154,-4.807,0.87,2.429,-0.455,-1.468,-3.606
29049144:11:791,-0.045,2.359,12.672,-4.131,3.284,0.848,-4.619,-4.208,3.501
29049144:11:791,-0.31,-2.274,9.267,-4.919,4.22,-3.222,4.847,-3.879,-0.713
29049144:11:791,4.596,-3.698,10.654,2.693,-4.433,-4.267,-2.017,-0.825,-4.023
29049144:11:791,1.41,2.056,13.127,2.492,4.76,-1.787,-0.514,4.151,-3.142
29049144:11:791,2.69,0.956,9.875,4.33,1.361,-4.914,-4.931,-0.091,-1.434
29049144:11:791,2.826,2.068,13.622,2.482,-3.659,-2.484,-0.7,-0.815,3.331
29049144:11:791,-2.222,0.508,11.675,0.634,-3.208,-4.895,2.728,4.975,0.338
29049144:11:791,2.46,-0.945,14.291,-1.516,-4.226,1.626,1.6,-2.972,1.145
29049144:11:791,-4.297,-4.655,5.677,2.064,0.363,-4.329,-3.546,-4.49,4.246
29049144:11:791,-2.425,3.814,9.0,0.221,-0.446,2.416,-4.49,-0.916,-1.497
29049144:11:791,-2.416,-4.945,5.506,-3.431,4.119,3.015,-0.496,-4.327,-4.367
29049144:11:791,1.266,-2.698,12.069,-1.368,-2.809,-3.021,3.79,-1.07,4.362
29049144:11:791,0.436,0.345,8.844,1.445,-2.547,-3.635,3.734,2.881,-3.752
29049144:11:791,-1.441,0.975,8.974,-4.024,2.14,-1.195,0.802,4.194,0.662
29049144:11:791,0.806,4.815,5.975,1.755,2.548,0.506,2.383,4.02,-0.327
29049144:11:791,2.443,-3.529,6.58,-1.379,3.999,-1.392,-3.18,2.801,4.461
29049144:11:791,0.046,-3.5,5.356,1.327,1.827,-0.241,-2.321,-0.657,4.741
29049144:11:791,2.046,2.63,10.954,1.973,-1.18,2.38,-2.09,0.624,2.432
29049144:11:791,-2.174,3.558,10.925,1.013,2.468,-4.337,-1.375,-4.328,-1.609
29049144:11:791,-3.513,-0.768,6.552,2.061,1.938,-1.791,2.289,-2.17,-3.341
29049144:11:791,-0.774,-3.211,10.086,3.755,3.072,2.766,-3.239,-1.662,0.162
29049144:11:791,-1.177,4.202,13.067,2.696,3.889,3.206,4.589,3.203,-4.527
29049144:11:791,1.03,-1.68,5.096,-0.717,4.491,-2.089,2.414,-2.054,2.843
29049144:11:791,3.398,-0.623,14.732,-0.143,3.78,-4.32,-4.344,-1.662,4.401
29049144:11:791,-2.494,2.274,9.369,4.148,-2.363,-3.433,-1.816,-3.31,-3.94
29049144:11:791,-2.018,-2.176,5.333,-0.741,3.366,-1.598,3.557,1.527,3.267
29049144:11:791,0.784,-0.65,8.864,1.989,0.098,0.908,-0.692,-3.173,4.93
29049144:11:791,-3.087,4.067,13.703,-4.66,-0.413,-2.249,4.231,-3.709,2.678
29049144:11:791,-0.753,-2.785,7.405,1.602,-3.504,3.289,-4.091,-4.084,4.526
29049144:11:791,2.122,1.593,10.484,-3.887,4.214,-2.656,-4.805,0.414,-1.505
29049144:11:791,-0.416,-1.593,7.821,-3.636,0.993,4.69,4.421,1.401,-3.441
29049144:11:791,2.545,-2.65,11.106,-4.602,1.389,-3.282,2.809,2.521,-1.847
29049144:11:791,3.322,-3.206,12.496,-0.723,4.939,-2.68,-1.793,-4.831,3.356
29049144:11:791,-1.509,-2.655,12.729,4.275,-4.067,3.698,-2.531,-4.393,-3.814
29049144:11:791,0.559,-4.293,9.011,-4.556,-2.129,3.953,-4.595,-1.859,-0.939
29049144:11:791,-4.818,-3.798,11.898,-2.298,-2.762,2.226,-3.871,-4.48,-2.454
29049144:11:791,1.726,3.513,6.312,4.176,0.485,-0.438,-0.441,-4.834,-2.558
29049144:11:791,2.098,4.4,14.66,1.473,0.349,-4.484,1.562,4.886,1.774
29049144:11:791,0.884,-1.617,6.909,-3.991,1.921,-0.805,-3.791,3.311,4.724
29049144:11:791,-2.076,1.389,7.07,3.665,-2.822,-0.773,-4.832,-1.487,-2.851
29049144:11:791,-3.681,4.965,11.542,-1.832,3.161,-0.589,2.367,4.609,1.943
29049144:11:791,3.176,-4.966,9.814,3.72,-0.498,1.423,-1.738,-0.845,4.336
29049144:11:791,0.498,-0.731,5.422,3.316,-0.517,-1.815,4.438,1.241,-3.887
29049144:11:791,4.97,-1.346,7.475,1.239,2.0,1.73,-3.485,-0.448,-4.281
29049144:11:791,-3.412,-1.681,12.263,2.719,2.192,4.086,-4.81,-2.068,2.106
29049144:11:791,4.665,-1.039,14.478,2.829,-4.802,4.738,-4.227,2.772,2.117
29049144:11:791,-2.318,-2.425,8.475,-2.993,-0.609,-1.418,4.82,-3.362,-0.028
29049144:11:791,-2.135,-4.103,9.77,2.285,1.403,2.962,1.968,4.592,1.171
29049144:11:791,-4.342,4.965,14.69,-4.821,-4.931,-3.281,-4.707,-2.33,1.497
29049144:11:791,4.362,-0.166,9.134,3.339,3.998,0.362,3.954,-3.925,-2.954
29049144:11:791,-1.563,1.637,7.283,4.607,-3.854,-0.103,-3.848,3.427,-2.368
29049144:11:791,-1.834,2.982,13.39,1.094,-2.989,0.858,-3.55,4.789,-0.701
29049144:11:791,-2.04,-0.71,5.733,-3.206,-3.23,-4.437,-2.765,-2.232,-4.391
29049144:11:791,-0.195,-3.2,7.747,-2.588,-2.727,-0.771,-0.923,-2.982,3.706
29049144:11:791,-0.548,2.754,7.005,-1.176,1.245,0.106,4.771,-2.722,-4.274
29049144:11:791,0.682,0.306,5.305,1.709,3.195,3.621,1.711,2.749,-2.947
29049144:11:791,4.625,2.422,7.717,4.754,2.423,-2.919,0.239,0.262,3.447
29049144:11:791,3.853,2.59,13.578,3.769,0.22,-3.952,-0.447,-2.186,-4.268
29049144:11:791,4.434,2.499,5.547,2.761,2.433,2.928,4.315,3.907,0.378
29049144:11:791,1.011,4.286,12.473,-0.838,-3.853,-3.623,-2.684,-3.383,2.516
29049144:11:791,-4.491,0.154,6.911,-4.458,2.262,2.726,2.777,-3.406,0.893
29049144:11:791,-0.784,-1.22,9.703,-1.537,0.836,2.095,-2.76,0.099,-2.198
29049144:11:791,-3.851,2.675,14.646,-3.528,2.977,-3.691,3.115,-0.031,1.163
29049144:11:791,-4.513,-1.382,14.652,4.804,-1.991,2.634,-1.974,-2.54,0.519
29049144:11:791,3.338,-2.168,11.066,-1.037,-0.331,4.877,-0.971,4.308,2.836
29049144:11:791,-0.532,-1.428,11.601,1.52,0.439,2.325,-2.472,-2.228,-3.374
29049144:11:791,-4.295,-4.829,13.893,-1.293,-4.234,-4.266,-3.408,2.55,1.993
29049144:11:791,0.105,4.307,12.573,3.583,-1.18,0.504,3.266,-1.149,-0.548
29049144:11:791,-4.708,-4.397,12.967,1.017,-1.657,3.273,3.537,-2.516,-1.006
29049144:11:791,-4.236,3.826,7.826,-3.041,-4.462,-0.121,4.358,0.666,-1.46
29049144:11:791,-2.306,-1.059,14.25,-2.086,0.406,-3.648,-4.771,4.502,-1.729
29049144:11:791,-3.851,1.271,10.888,-4.275,2.192,2.586,2.701,-0.491,4.613
29049144:11:791,-2.623,-2.203,11.67,-1.496,0.078,-3.214,0.864,4.42,0.296
29049144:11:791,4.768,2.267,8.245,3.355,-2.877,2.765,0.352,3.532,-2.035
29049144:11:791,-4.353,-1.182,5.116,-3.976,0.254,-0.375,-0.167,1.037,-3.685
29049144:11:791,-3.109,4.619,7.262,-0.573,3.716,-2.097,-3.334,4.104,-0.675
29049144:11:791,-0.957,0.671,6.438,1.046,0.922,-4.472,-2.375,-4.223,-2.789
29049144:11:791,-2.088,4.752,10.164,-2.929,1.446,1.468,-2.017,1.203,-0.679
29049144:11:791,-2.601,4.727,12.935,-4.937,-1.968,-0.049,0.053,-3.918,2.757
29049144:11:791,0.292,2.394,7.694,0.315,-1.386,2.223,-1.809,-1.273,2.43
29049144:11:791,-2.704,-0.863,12.725,1.369,-4.705,-1.76,-2.163,4.047,-4.424
29049144:11:791,2.36,4.698,6.358,-0.681,-3.442,-1.922,-1.175,-3.732,-0.138
29049144:11:791,2.883,4.964,13.277,1.291,4.357,-1.489,-1.598,0.302,4.098
29049144:11:791,3.587,-0.107,12.193,-0.248,0.291,-3.865,-4.733,-1.865,-2.005
29049144:11:791,-3.31,0.847,13.35,4.278,1.462,-4.211,-1.932,3.795,-1.678
29049144:11:791,-1.971,-2.369,12.807,0.66,1.989,3.758,-3.868,2.291,-0.296
29049144:11:791,2.191,-3.069,12.313,-4.076,-3.352,4.194,-0.343,4.232,-1.462
29049144:11:791,3.646,-2.131,12.965,-3.386,-0.603,1.827,-3.595,-0.5,-2.618
29049144:11:791,4.94,4.069,13.518,1.533,0.88,1.233,-1.083,-3.058,0.819
29049144:11:791,1.184,2.288,12.431,0.083,-0.726,4.395,-3.942,4.469,-4.811
29049144:11:791,3.793,0.393,6.943,3.13,2.854,3.602,3.726,-4.457,-2.908
29049144:11:791,-3.609,-3.62,9.509,0.682,2.677,0.689,1.196,-4.262,-1.674
29049144:11:791,3.858,-2.363,13.04,0.418,3.686,0.232,0.009,0.916,4.187
29049144:11:791,0.948,-0.346,5.823,-0.117,-2.443,4.558,-0.058,-4.018,1.36
29049144:11:791,-3.62,-4.431,7.526,-0.983,2.381,-3.458,4.588,4.563,0.676
29049144:11:791,1.06,-0.229,11.174,3.013,-0.118,0.117,-4.898,2.198,-1.614
29049144:11:791,-1.323,-2.116,11.204,-0.188,-0.111,3.759,2.602,-2.297,-0.702
29049144:11:792,-0.411,0.348,6.636,2.759,2.288,-2.503,-3.885,3.269,1.637
29049144:11:792,2.328,-2.201,11.068,-0.186,-3.294,3.77,-0.941,1.105,3.211
29049144:11:792,-2.705,0.923,9.462,-4.235,-3.015,-3.984,-3.948,1.642,0.121
29049144:11:792,-4.035,-4.131,14.876,-1.921,4.098,-4.589,3.79,-3.36,3.255
29049144:11:792,0.918,-4.223,12.894,-0.329,-4.3,-2.58,1.781,4.261,-3.397
29049144:11:792,-0.163,-2.884,5.888,2.652,0.672,-0.731,0.971,3.143,-1.123
29049144:11:792,-2.641,2.199,12.805,-0.328,1.58,3.256,-2.735,-0.607,4.472
29049144:11:792,0.769,1.252,5.363,4.51,-1.993,-1.438,3.825,1.504,1.543
29049144:11:792,4.608,3.125,11.108,-1.87,0.927,4.408,-0.188,0.919,-1.005
29049144:11:792,0.338,-0.874,10.685,-3.42,3.0,2.189,-4.802,1.125,4.977
29049144:11:792,-2.366,-4.869,9.197,-1.795,0.539,1.209,-1.019,-3.332,3.192
29049144:11:792,3.029,4.158,10.24,1.276,0.991,-1.638,0.879,-2.431,-2.757
29049144:11:792,0.33,-1.329,6.743,0.949,1.128,4.646,-0.001,-1.528,-3.386
29049144:11:792,0.657,0.106,7.129,-1.716,-4.429,1.663,0.417,-4.395,-1.295
29049144:11:792,4.387,4.532,8.674,1.87,2.845,-4.426,-1.181,-2.657,-3.361
29049144:11:792,4.237,1.112,13.086,0.289,-2.086,-1.303,-2.739,-4.28,0.176
29049144:11:792,-4.755,-1.054,5.987,2.443,-1.451,4.608,0.302,1.892,3.503
29049144:11:792,-1.227,-0.989,8.217,-3.207,-1.302,-2.239,-0.306,-3.129,-3.08
29049144:11:792,-4.271,2.475,8.427,3.337,-2.743,-2.112,1.533,4.78,-3.854
29049144:11:792,-2.668,-4.864,7.522,1.553,-1.706,4.878,2.738,-4.896,-2.336
29049144:11:792,-2.98,1.166,6.22,3.028,0.253,-2.957,1.91,4.453,-3.521
29049144:11:792,-3.028,4.74,6.33,-4.778,-2.967,-4.889,4.878,2.73,2.512
29049144:11:792,-3.353,4.926,12.472,-3.805,-0.611,-2.598,2.672,2.047,4.438
29049144:11:792,-1.612,-4.93,8.319,-3.177,-1.414,1.642,-2.893,4.064,-4.35
29049144:11:792,0.989,-4.492,6.548,1.37,-0.738,-3.761,-3.442,3.33,1.413
29049144:11:792,2.258,-1.879,9.241,3.863,3.225,-4.309,4.791,-2.245,-2.908
29049144:11:792,0.958,4.099,9.564,-2.058,-1.187,-0.799,-1.951,-3.332,0.436
29049144:11:792,-3.066,0.983,8.523,-0.621,3.178,-3.313,1.231,-3.667,-4.031
29049144:11:792,-1.021,-3.006,6.4,3.055,2.165,-4.304,-1.577,-2.589,-1.955
29049144:11:792,0.321,3.173,7.586,1.431,-1.19,1.83,-2.386,-0.531,-0.324
29049144:11:792,-3.001,1.439,7.388,1.198,1.942,0.772,-2.028,1.913,3.303
29049144:11:792,2.317,-4.933,9.643,3.065,2.339,4.315,-2.314,-1.475,3.856
29049144:11:792,-3.337,0.833,10.995,-4.793,1.901,-0.412,-4.841,-1.985,-1.21
29049144:11:792,-0.596,3.506,7.512,4.895,-2.355,-1.862,-1.479,4.324,1.263
29049144:11:792,3.957,0.53,13.693,1.527,3.943,1.056,-3.038,-0.689,2.185
29049144:11:792,-2.964,-2.812,12.692,-4.534,3.833,3.153,-3.54,-2.531,-4.507
29049144:11:792,-2.368,-1.021,5.441,-0.535,-3.238,-4.221,2.635,3.75,0.692
29049144:11:792,1.565,4.356,7.292,-0.769,2.147,-3.835,-0.422,3.277,0.796
29049144:11:792,0.279,-0.736,6.168,0.239,-1.162,2.729,4.566,2.756,-0.388
29049144:11:792,4.39,-2.472,7.498,4.225,-3.088,-0.135,-2.699,4.663,-2.793
29049144:11:792,1.823,0.121,10.924,0.517,-4.226,3.567,-3.987,0.658,1.594
29049144:11:792,-4.939,-1.056,10.619,4.761,1.991,4.965,1.167,-0.82,-3.445
29049144:11:792,4.59,-0.54,13.211,-2.867,4.172,4.937,-2.573,-1.903,4.534
29049144:11:792,-1.678,-2.52,10.836,1.813,4.539,1.363,3.686,-1.822,0.983
29049144:11:792,3.521,2.189,8.354,-1.227,3.179,2.812,-1.794,2.838,-2.291
29049144:11:792,-0.319,2.528,9.969,-3.432,0.428,1.474,4.48,4.339,-0.369
29049144:11:792,-0.241,0.597,10.475,2.694,-4.989,2.596,1.949,2.512,-4.603
29049144:11:792,4.695,2.542,11.484,1.203,-1.5,-0.838,-0.943,-3.564,0.727
29049144:11:792,-2.98,2.376,14.857,-4.484,4.226,-0.51,3.313,-1.982,2.238
29049144:11:792,4.972,2.016,13.327,-0.325,2.4,1.373,-1.788,1.745,-4.739
29049144:11:792,-2.176,4.442,6.575,1.141,2.855,4.74,0.736,1.682,0.234
29049144:11:792,-4.331,-4.64,12.139,1.949,-3.152,4.321,-4.84,3.145,-1.909
29049144:11:792,-3.33,-2.973,10.838,-4.015,-0.504,-1.811,-1.788,1.211,3.148
29049144:11:792,1.47,-3.422,12.401,0.834,0.929,1.913,2.783,4.617,3.33
29049144:11:792,2.324,1.274,10.695,0.26,1.882,4.047,-3.206,0.694,-4.248
29049144:11:792,-4.586,-3.593,13.495,-1.811,2.913,-3.548,-2.38,4.876,2.042
29049144:11:792,1.217,1.08,14.637,3.487,-3.59,-1.755,1.884,0.349,-1.019
29049144:11:792,4.894,4.052,9.4,1.942,-4.964,-4.445,2.552,-3.529,-1.74
29049144:11:792,-4.294,2.412,13.14,4.691,-4.022,-2.434,2.59,-0.83,2.273
29049144:11:792,-0.988,-2.602,9.838,-1.83,-4.316,-1.054,-2.502,-1.107,-2.469
29049144:11:792,3.595,-4.602,12.266,-3.985,4.804,2.298,1.005,-1.303,-4.769
29049144:11:792,-2.272,-2.367,5.755,4.778,-0.719,1.869,-4.046,3.166,0.247
29049144:11:792,1.439,-0.678,7.141,4.112,4.285,1.057,-1.872,-0.321,1.706
29049144:11:792,-4.779,-0.258,7.156,1.053,-1.8,0.701,1.31,1.394,-2.691
29049144:11:792,-0.08,2.058,14.922,0.327,0.424,-4.413,4.311,3.227,0.287
29049144:11:792,2.755,4.175,12.772,0.045,-3.137,-4.861,0.097,2.103,4.854
29049144:11:792,-2.819,-1.644,14.605,-0.228,-0.212,-0.429,2.454,3.843,1.542
29049144:11:792,-4.686,-2.56,5.63,2.573,1.665,-4.148,2.166,-4.497,0.426
29049144:11:792,1.009,-4.279,8.194,-3.675,1.535,2.85,3.322,4.825,1.718
29049144:11:792,-2.636,3.264,13.022,1.016,0.516,-3.426,-3.609,-0.512,-1.148
29049144:11:792,-4.712,-2.986,7.298,2.012,3.21,-2.125,4.982,-3.287,-1.726
29049144:11:792,4.415,-3.34,11.584,-1.499,4.158,-1.498,-1.482,-3.856,-1.079
29049144:11:792,0.514,1.538,6.465,2.242,2.453,-4.362,1.164,-3.349,-2.168
29049144:11:792,-4.458,-3.447,12.839,2.092,3.204,-3.134,3.084,-1.137,0.293
29049144:11:792,-2.191,-2.664,14.03,2.761,-1.915,2.047,1.075,1.372,-4.928
29049144:11:792,-1.389,-2.325,8.621,2.75,0.779,0.825,1.73,-0.274,1.874
29049144:11:792,2.176,0.831,14.577,1.56,-4.5,1.346,0.508,4.494,-0.89
29049144:11:792,2.926,-1.496,6.593,-4.649,-2.519,2.211,1.386,1.218,3.908
29049144:11:792,0.777,0.279,13.35,-1.412,-2.022,-4.712,4.421,3.54,-1.439
29049144:11:792,2.302,2.58,10.529,-0.362,4.614,3.813,0.612,4.511,-1.91
29049144:11:792,2.781,2.197,8.113,1.248,0.264,-3.173,2.324,-2.416,3.862
29049144:11:792,3.709,1.779,8.707,-4.728,2.507,4.452,4.014,-0.351,4.104
29049144:11:792,-2.197,3.432,13.498,-2.301,1.405,-4.958,3.563,2.747,-4.317
29049144:11:792,1.539,-2.887,6.978,-1.199,-4.745,2.083,4.666,4.418,-0.862
29049144:11:792,-0.112,3.044,11.261,1.38,-0.177,-1.906,-2.665,1.421,-1.573
29049144:11:792,-4.187,0.137,5.853,-2.133,1.507,0.257,3.947,2.872,-2.821
29049144:11:792,1.36,1.092,5.631,-0.272,0.49,-3.368,-3.558,4.131,0.541
29049144:11:792,-0.673,1.615,7.243,-0.626,3.796,-4.456,2.297,-2.578,-3.054
29049144:11:792,-2.95,3.265,5.087,4.187,-0.854,2.582,3.288,-3.912,0.952
29049144:11:792,1.843,4.626,6.848,4.635,-1.144,-3.488,-2.832,-0.808,-1.88
29049144:11:792,3.499,-4.025,12.495,-2.246,-1.447,2.745,-0.688,-2.287,-3.946
29049144:11:792,-4.84,-4.26,12.825,4.919,4.204,-3.765,3.392,4.952,-2.647
29049144:11:792,-2.141,0.393,14.534,-3.085,2.043,0.865,0.12,3.922,0.797
29049144:11:792,4.029,-2.187,5.404,4.651,-0.297,-3.512,-1.099,2.964,1.164
29049144:11:792,-0.052,3.787,10.662,1.034,-2.117,2.79,-4.76,0.813,2.964
29049144:11:792,3.114,-3.642,10.8,-0.302,-0.057,3.226,1.661,-0.938,-3.319
29049144:11:792,4.328,2.142,9.141,4.984,-2.492,-4.355,0.095,-0.365,-2.951
29049144:11:792,-2.2,1.077,6.792,0.793,0.95,-4.778,-4.381,-1.787,-2.429
29049144:11:792,-4.74,-0.293,13.817,3.392,2.66,-4.753,3.069,2.183,-2.654
29049144:11:792,4.22,4.403,5.79,0.998,-2.708,-0.9,4.744,2.526,-2.519
29049144:11:792,3.327,-2.104,8.848,3.901,-3.063,3.016,-3.313,0.374,-1.41
29049144:11:792,-3.303,-2.876,11.21,1.853,-0.817,-1.148,3.696,4.101,3.139
29049144:11:792,2.847,3.91,12.707,4.158,-3.698,2.601,1.73,-3.296,1.255
29049144:11:792,4.76,0.611,10.233,-2.766,-2.948,-4.196,-4.836,3.429,-1.985
29049144:11:792,0.886,3.359,14.237,4.317,0.532,3.93,-3.853,-2.415,0.467
29049144:11:792,0.347,-0.603,10.628,0.918,0.207,1.859,-1.577,0.693,-4.06
29049144:11:792,4.175,2.805,10.343,-3.902,-1.516,0.492,-4.927,-0.058,-3.371
29049144:11:792,0.157,3.823,12.831,-2.736,-4.388,2.054,-2.638,-1.695,1.469
29049144:11:792,-0.634,4.614,5.959,2.297,4.176,-2.405,0.693,2.46,4.702
29049144:11:792,1.621,-4.561,11.795,-2.026,0.04,4.514,-0.951,2.109,3.087
29049144:11:792,4.043,2.249,13.223,1.672,3.218,2.2,1.384,4.881,0.118
29049144:11:792,-0.148,2.808,8.01,-0.145,0.674,-0.079,1.344,-1.423,-4.657
29049144:11:792,2.521,1.847,9.438,-0.283,-2.712,4.294,-4.388,-1.364,-1.779
29049144:11:792,2.672,-0.708,13.467,4.256,-3.551,-4.355,-1.384,4.328,-0.457
29049144:11:792,4.852,1.733,11.911,4.163,1.877,4.018,-0.367,2.347,-4.092
29049144:11:792,0.557,-1.126,8.487,2.736,1.75,3.549,0.704,1.348,3.607
29049144:11:792,-0.911,-2.134,11.359,4.878,4.811,1.966,3.565,0.37,3.559
29049144:11:792,-1.707,-0.327,12.801,-4.117,1.013,-3.995,4.685,-2.635,1.454
29049144:11:792,0.447,3.746,10.864,-4.266,-1.979,-1.841,1.214,4.566,-3.058
29049144:11:792,0.455,-2.175,12.873,-2.942,-3.722,-2.722,1.201,-1.278,3.066
29049144:11:792,2.686,-4.101,10.418,2.283,4.39,-2.826,2.859,-0.07,-3.305
29049144:11:792,-4.372,4.323,6.698,-4.242,1.991,-4.949,0.021,0.881,-0.759
29049144:11:792,4.149,-3.826,7.336,1.617,4.913,2.178,-2.771,-0.579,-1.829
29049144:11:792,-1.713,1.542,9.011,1.799,-0.402,2.471,2.968,-1.545,-2.14
29049144:11:792,-2.475,2.323,10.819,0.66,-0.578,-1.652,-3.723,4.303,3.493
29049144:11:792,-1.396,-4.978,9.842,-2.026,-0.195,3.445,-1.088,-4.998,-4.529
29049144:11:792,2.135,-1.073,9.709,-3.873,1.706,4.255,2.827,-4.771,1.619
29049144:11:792,-1.971,3.421,8.666,3.927,-0.22,0.662,0.242,-3.884,3.458
29049144:11:792,1.531,-4.92,7.868,4.867,-1.544,2.932,0.598,1.364,-0.462
29049144:11:792,2.891,3.042,14.298,0.66,-2.829,3.019,1.634,3.127,3.642
29049144:11:793,3.381,4.111,6.86,-0.064,-0.582,1.225,-0.411,0.708,2.133
29049144:11:793,1.638,0.517,8.542,1.707,4.087,-3.339,-3.837,-4.92,1.159
29049144:11:793,3.142,-0.634,6.266,-4.619,-0.218,0.556,0.277,4.763,3.182
29049144:11:793,-3.13,-4.163,14.306,1.951,1.059,-1.987,4.283,1.115,-1.018
29049144:11:793,-1.572,4.038,9.876,-1.808,0.735,-2.664,3.841,2.414,2.298
29049144:11:793,-3.388,1.529,12.946,-3.873,3.692,3.839,2.473,-1.778,-1.139
29049144:11:793,1.861,-0.244,6.48,4.749,0.411,-3.167,-1.26,-3.814,2.311
29049144:11:793,-0.867,0.096,10.089,2.433,4.763,-1.377,0.424,2.394,2.763
29049144:11:793,4.627,3.491,12.965,-3.37,4.147,0.095,-3.639,-0.776,3.791
29049144:11:793,-3.281,-2.995,10.191,-0.243,2.848,-1.306,-3.391,-3.353,4.197
29049144:11:793,2.739,3.225,10.304,-1.618,-2.756,-0.094,-4.479,2.449,-2.484
29049144:11:793,-2.023,-2.227,11.45,-3.518,-1.272,-0.418,3.48,-3.638,-2.148
29049144:11:793,2.838,2.573,12.283,3.948,1.468,-3.714,-0.822,2.442,-1.008
29049144:11:793,0.584,1.931,10.786,-3.733,-2.778,0.522,-0.187,-1.836,-2.668
29049144:11:793,-4.603,1.258,10.057,-2.747,4.318,-3.485,-4.185,-2.765,3.337
29049144:11:793,-2.555,-4.865,5.77,-4.944,0.311,-0.139,0.418,-3.654,-3.528
29049144:11:793,-4.524,-2.968,11.489,-4.113,0.175,-0.719,2.028,1.13,0.154
29049144:11:793,2.401,3.846,7.402,-2.733,-2.029,4.648,0.635,-3.78,-2.062
29049144:11:793,-1.645,0.01,12.427,-0.616,3.459,-0.676,-3.186,-2.056,3.252
29049144:11:793,1.318,4.921,7.358,-3.491,-3.261,-1.038,0.794,-2.314,-0.867
29049144:11:793,0.76,1.383,13.546,-3.28,-3.389,-1.665,-3.207,3.131,4.383
29049144:11:793,-4.816,-1.779,6.151,-1.929,4.797,-4.645,-0.309,2.446,3.332
29049144:11:793,-1.06,-4.243,6.615,4.101,1.526,1.444,-2.598,0.444,-0.995
29049144:11:793,-2.972,-1.58,5.957,4.769,4.639,-4.442,-4.322,0.738,1.213
29049144:11:793,2.903,3.946,13.659,2.148,2.034,-2.933,4.3,2.316,3.541
29049144:11:793,-4.319,4.244,11.366,1.251,1.718,3.798,-0.249,2.734,0.852
29049144:11:793,-0.031,-3.291,8.414,-2.793,4.262,-2.956,-2.123,-0.455,-2.825
29049144:11:793,0.352,3.297,5.983,-0.992,0.06,4.572,2.047,1.0,-4.756
29049144:11:793,3.787,-4.438,7.491,-4.653,-1.898,4.964,2.916,1.145,0.881
29049144:11:793,-2.697,-0.133,10.99,-3.699,-2.752,0.42,-3.777,2.802,-1.118
29049144:11:793,0.232,-0.599,6.843,-4.154,-1.744,4.357,3.775,-1.437,4.715
29049144:11:793,-0.487,0.609,7.329,4.922,-1.739,-3.464,1.452,2.021,1.011
29049144:11:793,-4.836,-3.594,8.448,-0.849,1.186,4.015,-2.101,-0.572,3.101
29049144:11:793,0.597,2.631,11.365,-2.916,2.946,-2.141,-1.474,3.74,1.212
29049144:11:793,2.616,-0.381,8.465,-1.697,2.332,3.283,3.007,-1.198,-3.482
29049144:11:793,0.472,0.156,7.521,-1.296,2.984,-1.736,-4.97,-1.511,1.422
29049144:11:793,-2.384,2.728,12.495,-0.756,2.377,0.707,0.012,-0.221,-1.772
29049144:11:793,1.1,-4.681,13.875,0.49,0.233,-3.285,2.398,-1.271,-2.071
29049144:11:793,0.871,3.903,13.769,-2.22,-1.132,2.125,4.274,4.477,3.831
29049144:11:793,4.796,3.968,14.003,1.827,-1.326,2.121,-4.038,2.435,-3.249
29049144:11:793,-1.441,-2.653,5.146,3.976,0.13,-4.337,-1.873,-2.019,-0.225
29049144:11:793,4.445,3.666,6.371,-4.17,1.704,4.024,4.059,0.454,0.306
29049144:11:793,-3.479,-0.566,11.193,2.762,-1.249,1.476,-4.861,3.335,1.557
29049144:11:793,3.165,-1.369,10.012,-3.282,2.77,-3.657,-4.25,-1.021,-1.965
29049144:11:793,2.273,-3.977,6.918,3.014,-0.167,-1.326,3.403,2.443,-2.434
29049144:11:793,2.769,4.751,13.292,-1.495,2.645,1.773,-3.962,1.583,-4.565
29049144:11:793,0.775,3.238,5.922,-4.153,3.405,-4.806,4.462,-3.789,-3.458
29049144:11:793,1.472,-1.523,14.71,2.714,3.686,-2.006,-3.671,3.983,2.361
29049144:11:793,-4.531,4.81,5.829,-3.647,2.954,0.911,-4.585,-4.744,4.178
29049144:11:793,-4.141,4.108,11.398,3.949,-3.9,-4.853,-0.833,2.383,2.078
29049144:11:793,3.795,-3.669,10.12,-0.879,1.814,3.57,2.799,-2.822,-1.875
29049144:11:793,3.502,-1.005,13.113,1.999,-0.273,2.962,-3.752,-0.861,2.523
29049144:11:793,1.991,-2.479,11.768,2.566,0.883,0.73,-3.813,-3.772,3.17
29049144:11:793,2.35,-0.281,12.436,-3.81,-3.942,0.966,-2.544,1.872,-2.387
29049144:11:793,-1.189,4.809,8.249,0.938,2.274,-1.358,-4.828,0.244,-0.045
29049144:11:793,0.138,-3.715,9.624,-4.295,2.565,1.734,2.593,-1.829,-0.589
29049144:11:793,4.248,1.029,10.619,-0.073,-0.592,4.23,3.378,-2.758,-2.544
29049144:11:793,4.238,2.298,11.36,-2.689,0.137,-4.289,-2.125,-2.241,4.144
29049144:11:793,-3.174,-3.279,5.527,-1.489,4.916,4.316,0.374,4.477,-2.471
29049144:11:793,-2.769,-2.428,13.192,4.001,2.329,3.525,0.364,0.122,3.7
29049144:11:793,-1.392,-0.812,6.245,-2.8,-3.246,-0.299,0.187,2.225,-4.847
29049144:11:793,-4.774,1.269,13.185,4.127,-2.129,3.151,-4.461,-0.92,-3.937
29049144:11:793,-2.467,1.53,11.702,-1.067,0.59,-4.344,1.394,-0.466,-0.592
29049144:11:793,-2.47,1.869,7.265,2.258,2.336,-2.174,-4.176,-2.865,4.843
29049144:11:793,-0.066,1.793,7.222,2.547,0.089,0.608,-1.846,-0.986,-1.917
29049144:11:793,1.814,-2.105,10.823,3.373,-2.121,-4.124,-4.105,-4.256,-1.565
29049144:11:793,-3.699,-3.423,14.543,3.365,-3.807,-2.855,-2.657,-4.401,-1.845
29049144:11:793,-0.345,1.197,6.982,3.369,-1.109,2.298,-1.994,-1.782,0.006
29049144:11:793,-2.391,1.491,13.699,2.604,-1.764,-2.963,4.447,2.706,0.661
29049144:11:793,0.334,-4.129,6.219,-2.871,0.713,-1.276,1.652,4.85,1.185
29049144:11:793,-1.711,-2.746,13.919,-4.989,0.453,-2.719,-2.159,-1.639,0.723
29049144:11:793,3.377,2.33,10.868,3.606,-2.392,3.21,-3.107,4.865,-1.893
29049144:11:793,-1.053,-3.024,11.496,4.323,0.544,4.75,-1.46,-1.268,1.71
29049144:11:793,4.153,-2.587,11.829,1.059,-1.354,-1.084,-2.177,-3.12,-2.286
29049144:11:793,-3.142,4.802,5.782,4.552,0.207,1.561,2.157,4.451,1.015
29049144:11:793,-1.198,-1.864,6.267,0.356,-0.226,-3.888,4.662,4.905,4.654
29049144:11:793,-1.204,-0.893,11.024,-0.679,-1.418,-2.316,2.174,-4.509,-4.686
29049144:11:793,1.522,1.337,9.483,3.825,-2.549,0.414,1.709,-3.987,-0.919
29049144:11:793,-3.426,-4.069,13.505,-4.855,3.335,1.819,0.604,3.719,-0.18
29049144:11:793,-2.012,2.503,5.927,3.501,-0.98,-0.746,-1.007,-4.987,0.473
29049144:11:793,-4.971,-4.683,12.43,-2.236,-1.995,0.018,-3.596,2.09,4.566
29049144:11:793,-3.837,4.639,10.3,-1.156,-3.018,0.428,4.736,-3.219,-4.381
29049144:11:793,-0.747,-2.83,8.171,2.345,3.758,-1.311,2.115,4.947,0.155
29049144:11:793,3.191,0.421,5.976,2.021,4.937,-1.639,-2.204,4.046,-3.966
29049144:11:793,-1.211,4.136,10.471,-0.696,4.914,-0.157,3.667,2.312,-3.746
29049144:11:793,0.909,-0.009,14.973,0.735,-1.026,-0.143,-4.172,-4.6,0.608
29049144:11:793,-3.1,3.124,13.89,-2.12,1.884,2.566,-2.812,0.252,-2.452
29049144:11:793,-3.04,-0.762,8.294,-4.692,2.883,4.671,-3.352,-3.416,1.418
29049144:11:793,4.301,-0.683,11.589,-0.538,-3.591,3.528,-3.278,2.482,4.244
29049144:11:793,-3.389,4.239,7.308,1.31,4.757,-3.725,-2.873,-3.197,-3.244
29049144:11:793,2.739,-0.906,6.65,1.751,-1.193,0.278,3.286,-0.681,-2.277
29049144:11:793,-0.982,-4.05,12.493,0.77,3.491,1.66,2.175,-2.035,-3.197
29049144:11:793,-0.191,2.517,11.274,4.923,-1.326,-3.454,1.214,1.156,0.995
29049144:11:793,-0.308,-0.197,14.954,-4.175,-2.959,3.496,4.478,4.776,-3.311
29049144:11:793,-1.429,-1.117,8.391,-3.94,2.994,-1.935,2.571,-3.89,-1.432
29049144:11:793,-1.254,-0.05,7.092,0.888,3.444,-3.537,1.908,2.939,-2.8
29049144:11:793,-1.676,-2.857,12.752,1.051,-3.585,3.8,-4.281,-2.7,4.459
29049144:11:793,4.662,-3.773,12.483,1.188,4.275,0.257,0.886,-1.652,-2.196
29049144:11:793,-2.724,1.365,10.822,-4.081,-4.549,0.004,0.14,2.145,1.454
29049144:11:793,4.671,1.162,14.653,-0.452,-2.791,1.979,3.719,0.295,1.698
29049144:11:793,-1.391,0.367,8.689,-4.41,3.094,0.338,4.635,0.602,-1.525
29049144:11:793,-0.131,-2.046,8.611,1.576,-4.276,3.445,-2.623,1.659,-0.792
29049144:11:793,1.278,4.958,12.185,2.189,0.633,3.014,2.182,4.33,-3.926
29049144:11:793,0.432,-0.418,12.161,-1.605,-1.03,3.231,-2.689,-3.034,-0.744
29049144:11:793,3.847,-4.207,10.05,2.006,4.992,4.912,2.73,0.46,-4.108
29049144:11:793,-2.437,0.349,10.986,2.692,2.103,-2.503,0.704,0.505,0.961
29049144:11:793,-2.287,2.43,12.34,-1.631,1.542,-0.685,1.207,0.044,3.147
29049144:11:793,-3.423,-3.41,14.795,0.789,-3.368,-3.644,-3.371,-4.879,-1.71
29049144:11:793,0.473,-0.807,9.619,-3.151,2.528,-2.8,4.792,4.677,0.077
29049144:11:793,-0.308,-1.478,12.845,-1.931,-4.89,-1.108,2.31,-0.59,4.277
29049144:11:793,-3.237,-2.454,7.481,-3.014,-4.988,-2.547,3.525,0.727,4.39
29049144:11:793,3.576,-3.958,9.496,3.216,-3.909,-2.726,0.016,-1.148,-3.726
29049144:11:793,2.651,1.945,7.192,-3.099,-0.306,-3.654,-0.23,0.29,-0.778
29049144:11:793,-4.659,1.842,9.05,1.159,-2.565,-4.661,0.676,3.308,3.873
29049144:11:793,4.266,-2.964,7.246,-3.529,0.758,-1.625,2.156,-0.638,1.812
29049144:11:793,2.928,0.764,14.275,2.429,4.139,-3.434,4.403,4.226,2.663
29049144:11:793,3.917,0.669,5.429,-0.975,1.421,-1.434,1.714,-0.819,-1.618
29049144:11:793,-2.202,-3.194,8.509,-1.229,1.05,2.676,-3.703,-1.085,-3.995
29049144:11:793,-1.554,-0.004,11.742,2.331,0.141,-3.317,2.313,-1.241,4.342
29049144:11:793,4.863,-0.706,7.426,2.519,2.514,-0.594,3.751,-0.144,2.669
29049144:11:793,2.866,0.92,12.127,-2.655,-0.674,-3.603,1.073,2.092,4.196
29049144:11:793,-3.954,-2.019,12.308,-0.465,-3.301,1.391,-4.666,3.838,-1.983
29049144:11:793,0.432,-4.523,5.153,4.014,-2.07,-1.076,3.023,-4.845,0.85
29049144:11:793,-4.025,-4.984,6.519,-0.831,-2.624,-0.925,-3.002,-4.971,2.839
29049144:11:793,-3.219,2.219,9.914,-3.122,-4.862,4.513,3.606,0.548,1.663
29049144:11:793,2.183,-1.242,5.254,-0.009,0.841,-3.654,2.805,-0.279,2.849
29049144:11:793,-3.44,3.683,13.156,2.214,-0.112,-0.571,3.429,-2.828,3.951
29049144:11:793,-0.488,-4.801,7.836,-2.836,2.369,-2.867,-2.407,-0.758,3.939
29049144:11:793,4.328,2.652,14.026,-0.114,1.04,-2.132,-1.434,4.249,-4.211
29049144:11:793,3.802,0.177,7.167,-4.372,-4.581,-3.166,-1.514,3.817,4.251
29049144:11:794,3.434,4.939,12.548,2.063,0.128,1.037,-2.877,2.801,-4.596
29049144:11:794,-0.85,-0.718,11.908,-3.713,2.258,1.292,2.975,3.414,1.679
29049144:11:794,3.352,2.226,13.933,-4.485,-1.483,-1.939,-0.614,-4.433,-0.516
29049144:11:794,-3.622,-3.811,8.718,2.388,2.121,4.32,3.459,0.891,-2.461
29049144:11:794,-2.731,-2.227,5.833,1.578,-0.729,-1.94,3.142,0.487,4.153
29049144:11:794,4.834,1.844,6.985,-4.308,-1.909,1.036,-0.271,-3.505,-0.441
29049144:11:794,-4.738,4.61,7.308,-0.338,-0.714,1.86,0.304,-3.629,0.656
29049144:11:794,-0.911,1.579,14.442,2.538,2.637,2.28,0.373,0.183,0.072
29049144:11:794,-2.333,2.716,10.093,-3.777,-0.568,1.054,0.38,0.943,-4.371
29049144:11:794,4.215,-1.147,12.962,-2.749,0.578,4.833,-3.8,0.887,1.036
29049144:11:794,0.461,2.134,7.544,-2.695,2.913,-1.785,4.504,-4.848,1.039
29049144:11:794,-4.872,4.508,14.903,1.115,1.856,-2.951,4.16,4.955,-0.663
29049144:11:794,2.189,-2.265,13.866,-4.288,0.79,4.3,2.567,3.811,-1.518
29049144:11:794,0.473,-1.539,14.453,-3.131,-0.129,-0.472,-2.477,-2.748,-1.879
29049144:11:794,2.545,1.396,10.004,-3.005,-1.977,0.183,4.155,-1.999,3.462
29049144:11:794,-4.052,2.023,10.449,0.288,1.478,0.822,0.6,3.622,-1.273
29049144:11:794,4.372,3.929,5.966,3.575,-2.242,0.55,0.568,-4.568,-3.704
29049144:11:794,3.465,-4.618,8.874,-3.506,3.66,-2.003,-2.174,-2.11,-1.459
29049144:11:794,-3.856,0.872,12.795,-3.003,3.525,-3.941,-3.973,-1.158,2.257
29049144:11:794,-0.382,3.783,12.84,3.264,3.603,-1.985,-3.371,3.409,-3.971
29049144:11:794,1.863,-1.681,5.787,2.146,-4.91,-3.391,-1.012,1.57,-4.695
29049144:11:794,-4.432,4.396,6.569,-1.66,-1.767,-0.925,3.189,3.915,-1.283
29049144:11:794,-1.01,2.579,10.379,0.159,-1.209,4.214,2.943,-4.981,2.415
29049144:11:794,-2.016,2.791,13.621,-0.978,-3.438,3.164,-1.648,-0.561,-0.844
29049144:11:794,-2.004,4.499,7.026,-0.224,-1.126,-0.051,-0.634,-0.313,-0.433
29049144:11:794,4.55,-4.711,9.778,-0.183,4.431,-3.326,-4.766,0.648,-2.313
29049144:11:794,2.463,2.88,12.823,-2.974,2.742,-4.402,1.462,-0.92,-3.071
29049144:11:794,1.099,3.135,5.813,-1.749,-3.987,-3.103,-3.513,4.41,0.229
29049144:11:794,-4.412,-2.513,11.705,4.394,3.414,3.131,3.877,-1.618,-2.702
29049144:11:794,1.797,0.094,6.141,-0.408,-3.16,-4.979,2.311,-1.214,-1.972
29049144:11:794,-4.884,-2.523,6.75,2.776,-4.489,-1.813,-0.414,4.375,-1.397
29049144:11:794,3.986,-4.508,5.308,-0.556,3.358,4.79,3.529,-2.105,-0.012
29049144:11:794,3.741,4.06,5.511,1.707,-0.28,-0.391,-0.62,0.989,2.629
29049144:11:794,-3.097,-3.77,7.077,2.088,3.681,-3.881,-0.663,-3.191,-4.376
29049144:11:794,2.839,0.464,12.492,-4.932,4.766,3.331,-1.527,4.638,3.894
29049144:11:794,1.523,4.489,10.043,1.757,4.95,-1.617,2.842,-2.877,-3.136
29049144:11:794,-2.166,2.049,5.213,3.583,0.836,1.584,4.793,-0.596,1.801
29049144:11:794,-0.714,2.989,6.689,0.258,0.819,4.758,-3.178,-2.148,-0.361
29049144:11:794,-1.926,-4.673,11.765,-0.999,2.18,-3.402,-2.753,2.305,-2.722
29049144:11:794,-1.298,0.817,11.79,3.556,-0.922,-0.272,-4.446,4.108,1.973
29049144:11:794,-0.09,-0.569,12.28,-2.972,3.962,0.235,2.528,2.376,0.156
29049144:11:794,-4.957,1.746,11.432,4.67,-4.317,-1.936,0.967,0.825,2.191
29049144:11:794,4.592,2.731,14.086,2.844,0.776,-0.345,4.589,-4.838,0.49
29049144:11:794,0.46,-4.562,8.514,-1.448,4.424,-3.358,-4.613,2.762,-0.027
29049144:11:794,0.436,2.704,6.87,-4.736,2.388,2.711,1.198,4.571,-0.752
29049144:11:794,-0.714,-3.608,13.623,1.606,-0.578,-1.969,0.488,-3.792,-1.464
29049144:11:794,-1.08,3.166,11.267,-3.905,-2.249,-1.786,-3.789,-4.24,4.042
29049144:11:794,-3.512,-4.791,5.713,3.753,0.393,3.499,0.928,-1.252,3.516
29049144:11:794,-2.673,4.577,13.75,3.599,-2.48,-1.827,-1.626,-4.575,-3.023
29049144:11:794,2.325,2.613,6.284,4.508,1.496,1.834,3.085,3.297,-4.234
29049144:11:794,2.863,-0.314,8.576,-0.477,-1.895,2.684,-3.296,-1.046,-4.991
29049144:11:794,3.524,-2.433,12.172,-3.501,-1.713,-3.631,0.304,-0.517,-4.87
29049144:11:794,0.787,-1.39,9.436,1.234,-4.73,1.789,3.626,4.519,4.411
29049144:11:794,-3.476,1.649,11.423,-4.595,2.387,4.302,-4.546,-0.733,-3.166
29049144:11:794,-0.521,-2.331,6.081,-3.761,-2.07,-2.957,2.665,-0.582,-3.375
29049144:11:794,3.02,-1.149,11.969,-4.638,-2.354,3.586,-1.942,0.49,0.126
29049144:11:794,-0.13,-4.905,13.244,3.62,-0.589,-2.577,3.426,2.517,-1.657
29049144:11:794,4.919,2.61,11.563,0.553,-4.279,-1.409,-1.96,-0.636,1.116
29049144:11:794,-2.743,-2.413,14.582,2.931,1.787,-1.262,-0.123,3.384,-3.65
29049144:11:794,4.694,-0.249,5.567,4.835,3.602,-3.376,-2.387,3.291,-3.88
29049144:11:794,-1.349,-1.089,13.596,1.015,-2.671,4.767,-3.3,0.995,-1.336
29049144:11:794,0.098,3.548,10.751,-1.303,-1.779,4.633,-2.794,-4.499,0.424
29049144:11:794,0.552,-1.84,8.156,-2.134,-2.278,0.316,-2.439,-4.993,3.157
29049144:11:794,3.325,-1.362,5.643,1.179,-2.327,-0.693,-0.546,-0.54,4.525
29049144:11:794,-1.497,1.886,12.274,2.001,3.456,-1.447,-2.94,4.47,2.757
29049144:11:794,1.32,-2.419,7.118,-3.86,-0.797,3.416,0.803,0.273,-1.689
29049144:11:794,4.041,-0.83,12.479,1.015,0.448,-4.516,3.119,-4.643,2.955
29049144:11:794,0.615,1.189,8.436,3.511,-2.243,-1.483,4.23,2.981,4.205
29049144:11:794,-2.124,0.558,5.051,-0.094,4.186,3.183,3.859,2.245,-4.497
29049144:11:794,-2.425,-2.27,5.784,1.432,-1.355,1.727,2.716,-0.555,2.866
29049144:11:794,-1.437,-2.318,5.072,-0.054,3.777,2.917,-2.043,1.76,1.842
29049144:11:794,3.852,3.413,14.245,4.152,-1.028,-0.75,-1.854,-4.227,-4.94
29049144:11:794,2.128,-1.029,8.161,1.612,-3.181,-4.867,-0.156,-2.925,-0.792
29049144:11:794,-0.994,3.222,11.841,0.28,0.295,-0.103,-2.07,-2.268,3.387
29049144:11:794,0.603,1.32,14.304,4.86,-1.145,-2.46,-0.841,-0.842,0.019
29049144:11:794,2.161,2.515,13.183,-0.472,-3.247,-0.349,0.135,-3.903,0.429
29049144:11:794,3.156,2.33,6.317,-1.276,-3.655,-1.14,-2.588,2.886,-4.592
29049144:11:794,3.108,-0.417,5.764,-3.623,-4.003,2.273,-1.66,-4.943,0.685
29049144:11:794,-2.84,-4.827,14.923,1.431,-3.697,0.178,-4.92,1.017,1.319
29049144:11:794,-1.772,-2.126,7.545,-2.184,0.616,-1.55,3.063,4.002,-0.383
29049144:11:794,2.573,2.908,7.528,-1.24,3.457,1.042,-3.084,4.605,4.363
29049144:11:794,2.197,-2.299,12.816,-2.682,4.485,-4.947,-4.426,-2.617,-3.488
29049144:11:794,-2.409,-1.337,10.173,3.656,-1.111,3.864,4.135,1.506,-3.249
29049144:11:794,4.417,-3.616,6.691,3.017,-0.631,3.577,-3.89,-0.967,-0.678
29049144:11:794,-3.699,4.577,12.189,2.417,2.684,0.287,-2.649,0.061,0.618
29049144:11:794,2.786,3.417,6.627,-4.097,-3.757,4.489,3.597,3.063,-0.988
29049144:11:794,-1.515,-3.331,10.173,3.835,-0.011,0.793,-4.366,1.323,-4.001
29049144:11:794,0.251,-1.572,5.101,1.147,2.59,3.253,2.742,3.127,-0.823
29049144:11:794,1.705,2.763,13.251,-0.773,-2.292,-3.522,2.494,-3.856,0.383
29049144:11:794,2.366,2.848,14.995,1.936,-0.934,-3.21,2.795,1.074,1.028
29049144:11:794,0.421,1.159,5.138,1.979,0.646,1.69,-3.869,0.6,3.744
29049144:11:794,-2.749,2.099,9.044,-0.951,3.127,-3.525,-2.162,0.454,-1.024
29049144:11:794,4.682,-2.506,10.398,4.501,0.393,3.629,2.184,-4.598,0.766
29049144:11:794,4.403,2.407,14.399,1.272,2.523,4.007,-0.477,-3.321,0.696
29049144:11:794,4.214,-3.114,7.171,3.784,0.26,1.966,2.424,0.562,-4.543
29049144:11:794,3.694,4.227,13.716,1.689,1.236,2.008,3.363,4.807,2.936
29049144:11:794,0.645,-0.856,13.227,-3.37,-0.268,-4.698,3.574,-1.49,4.652
29049144:11:794,1.675,0.85,12.878,3.992,-0.588,-1.324,-2.799,2.038,-3.474
29049144:11:794,-3.856,-1.893,13.261,0.81,0.638,-2.562,0.402,1.17,-2.599
29049144:11:794,0.506,0.096,14.969,0.19,1.793,-2.495,0.832,-3.39,3.936
29049144:11:794,-3.998,-4.914,6.196,4.673,4.23,-0.838,-0.254,-0.207,-3.881
29049144:11:794,-3.933,2.527,12.173,0.448,1.882,-2.132,-4.642,1.78,2.407
29049144:11:794,4.554,-4.387,11.154,-0.731,1.026,2.42,-0.381,3.991,2.24
29049144:11:794,0.704,3.489,7.332,-2.54,0.453,-2.742,-4.096,-0.14,2.309
29049144:11:794,-2.041,-0.474,11.38,-4.269,2.376,-4.698,-1.467,2.232,4.036
29049144:11:794,-4.751,-2.646,12.64,-3.852,4.672,-3.49,-3.88,-2.715,-0.943
29049144:11:794,4.22,-1.953,12.739,-3.292,-2.06,-3.379,-4.485,-0.991,-3.198
29049144:11:794,4.105,4.946,13.575,4.26,1.152,3.769,2.369,-0.795,1.041
29049144:11:794,0.784,1.738,8.855,4.813,-1.108,2.019,4.918,1.686,3.532
29049144:11:794,-4.692,-3.5,13.363,-2.099,3.56,-3.801,3.45,3.713,0.427
29049144:11:794,-4.995,-4.105,11.389,1.392,4.292,3.563,-3.9,2.928,4.31
29049144:11:794,-2.173,-1.16,10.363,4.096,-4.905,0.739,-0.031,1.296,-1.295
29049144:11:794,0.706,-3.525,13.992,3.602,-1.817,-1.087,-3.679,3.841,0.673
29049144:11:794,-1.907,4.929,5.076,0.238,2.609,-1.881,0.074,-2.0,4.803
29049144:11:794,-4.085,4.46,12.529,3.994,-1.074,2.999,0.963,2.125,-3.618
29049144:11:794,3.3,4.931,7.795,0.533,-0.519,4.567,0.483,-3.148,-4.483
29049144:11:794,-3.643,-4.56,11.206,2.684,-4.251,-0.298,1.123,-4.759,-4.177
29049144:11:794,-1.955,-4.059,10.074,-1.632,1.022,-3.934,-3.426,2.073,-0.96
29049144:11:794,-4.944,-4.979,7.49,3.631,-2.173,4.944,-2.671,-1.131,4.886
29049144:11:794,0.088,-0.514,10.446,-0.973,-3.644,-3.121,-1.28,4.472,0.687
29049144:11:794,-3.042,-3.287,13.008,2.195,-4.143,1.178,-2.188,-2.202,-1.323
29049144:11:794,-0.68,-4.372,12.047,3.67,-1.886,-0.001,1.735,3.316,2.204
29049144:11:794,-1.43,-1.945,12.085,1.67,-0.093,2.437,0.388,2.278,2.73
29049144:11:794,4.441,3.384,14.011,2.452,1.228,-4.002,-4.397,-0.462,2.011
29049144:11:794,-1.975,0.897,6.098,1.107,1.463,-0.741,1.379,-2.247,-0.655
29049144:11:794,3.568,2.542,10.255,-4.293,1.137,-3.829,3.706,0.676,-4.964
29049144:11:794,-4.775,-1.465,10.642,-2.467,-2.568,-2.676,1.568,-1.807,2.709
29049144:11:794,-1.037,-2.661,9.803,0.91,2.866,4.456,1.446,-0.719,2.264
29049144:11:795,-2.051,2.98,8.048,-1.109,1.048,-4.943,-0.138,0.93,-1.791
29049144:11:795,1.274,-0.777,11.093,3.854,-2.137,2.177,-0.499,1.885,0.578
29049144:11:795,1.106,-2.767,13.752,3.183,-2.271,-4.9,1.759,2.112,-3.399
29049144:11:795,2.977,-0.683,7.218,0.392,3.008,0.235,2.262,-4.194,-1.42
29049144:11:795,1.285,-1.415,5.182,1.492,-2.449,0.324,-1.548,0.996,1.698
29049144:11:795,4.011,0.685,14.686,-2.362,-4.612,-4.88,2.154,-1.034,-0.001
29049144:11:795,3.244,-0.411,8.997,-2.783,-4.6,-2.232,-1.996,3.848,3.645
29049144:11:795,1.263,-1.622,10.113,0.607,1.345,4.479,-0.803,0.946,3.74
29049144:11:795,0.462,-0.831,5.973,-0.704,-2.764,0.92,1.577,-0.98,4.429
29049144:11:795,2.058,-4.967,5.47,0.27,-2.235,2.104,2.722,-4.32,4.514
29049144:11:795,4.536,-0.762,14.929,-2.829,-3.919,3.051,-2.739,1.439,-1.758
29049144:11:795,3.215,-3.918,13.888,3.67,-1.399,4.195,-4.147,-0.804,-2.462
29049144:11:795,4.24,-1.604,5.626,4.257,2.553,-2.141,1.206,-4.368,2.746
29049144:11:795,2.305,2.654,10.239,0.085,3.028,2.115,0.042,-1.322,1.347
29049144:11:795,3.23,-3.47,6.651,-4.969,-1.583,-4.856,-1.952,-2.795,0.087
29049144:11:795,4.061,-3.884,6.196,-3.866,-2.641,4.709,-4.722,1.316,-2.893
29049144:11:795,-0.028,2.043,5.823,4.24,0.848,0.647,2.688,3.656,4.3
29049144:11:795,1.706,0.688,7.78,-1.953,1.312,2.22,1.012,2.849,3.765
29049144:11:795,2.38,0.878,12.53,-4.572,-0.379,-1.027,3.341,-1.184,-1.022
29049144:11:795,1.257,1.537,11.781,4.164,3.417,-4.058,1.701,4.042,1.329
29049144:11:795,-0.732,3.308,5.469,3.704,-2.259,2.315,-4.589,3.241,2.08
29049144:11:795,-0.247,2.774,7.171,-0.32,0.463,-3.664,-1.917,0.775,2.308
29049144:11:795,-2.019,-3.925,7.04,3.081,-0.317,-3.564,-0.286,0.718,-2.401
29049144:11:795,2.137,2.267,8.341,-2.207,1.788,-1.429,3.685,-4.254,-0.773
29049144:11:795,4.785,4.751,14.207,4.983,1.725,-1.476,0.872,-1.223,3.303
29049144:11:795,4.919,0.742,12.418,3.076,3.415,-2.41,-4.168,-2.35,-0.726
29049144:11:795,-2.027,-0.205,10.622,-2.707,-4.569,-0.11,1.991,-2.415,-2.482
29049144:11:795,-3.926,2.859,7.364,-4.01,-0.473,4.838,-2.928,4.299,0.446
29049144:11:795,-2.361,0.754,13.99,-1.729,-4.453,-2.477,-0.944,1.776,1.076
29049144:11:795,-1.975,4.281,5.954,-2.148,-0.472,1.622,-0.383,-0.006,1.332
29049144:11:795,0.28,-3.119,14.409,-4.014,-2.804,-3.323,0.353,2.44,-0.039
29049144:11:795,0.581,3.455,11.495,4.177,3.692,-1.655,1.829,4.736,-2.956
29049144:11:795,-2.627,-4.872,6.442,-4.98,-1.177,0.025,2.16,1.622,-3.911
29049144:11:795,-2.382,1.045,9.997,2.971,2.732,-1.183,-3.87,-3.733,4.842
29049144:11:795,-0.704,4.19,12.402,-0.139,-0.69,2.903,1.515,4.391,2.703
29049144:11:795,3.402,-0.061,12.509,-2.041,1.308,1.443,3.494,2.127,1.513
29049144:11:795,-1.828,1.974,8.395,4.069,-0.975,-1.494,0.906,-1.694,-1.303
29049144:11:795,3.637,-3.223,10.64,2.879,-1.219,3.024,4.473,-3.154,-4.503
29049144:11:795,1.991,-1.095,14.494,-4.871,1.745,-3.935,-4.591,-2.205,-4.995
29049144:11:795,-0.384,0.674,8.068,4.75,3.973,4.788,-3.968,-3.844,-3.624
29049144:11:795,-3.825,3.612,13.732,-2.19,1.625,2.266,4.489,-1.08,1.793
29049144:11:795,1.24,-2.066,9.244,0.787,-1.818,1.57,2.769,4.718,-0.194
29049144:11:795,2.587,1.5,14.122,3.57,4.351,-1.404,-3.24,0.408,-1.647
29049144:11:795,-2.752,-1.027,8.932,0.339,3.434,0.854,-4.019,-4.503,1.814
29049144:11:795,3.554,4.679,13.907,-1.278,-0.678,-1.237,-1.191,-3.702,-1.883
29049144:11:795,2.532,1.405,10.659,4.778,-0.664,2.192,-2.175,2.278,0.387
29049144:11:795,-3.814,3.962,13.682,3.422,-2.137,-3.338,1.003,-2.637,0.982
29049144:11:795,-1.034,1.435,12.588,-3.188,-4.028,0.142,-3.923,-3.247,-2.547
29049144:11:795,-3.565,1.347,14.114,4.941,4.224,-1.571,-0.224,1.044,-3.664
29049144:11:795,1.186,1.49,7.874,0.582,0.74,-1.371,4.306,3.274,-4.272
29049144:11:795,1.654,4.11,10.362,-4.133,2.749,-1.67,-1.8,-4.077,-2.789
29049144:11:795,0.654,-0.81,12.943,-1.53,3.356,4.103,1.702,-3.716,1.091
29049144:11:795,4.78,-0.719,13.962,-3.403,0.949,-4.161,2.381,0.134,0.519
29049144:11:795,3.105,-1.159,7.629,4.942,0.697,-0.62,1.823,4.783,3.036
29049144:11:795,-1.531,-3.501,8.434,-3.143,4.85,-0.338,1.692,-0.815,3.736
29049144:11:795,-3.553,-3.225,9.615,-2.261,0.81,-3.885,0.383,4.996,-2.567
29049144:11:795,1.394,-2.612,10.375,4.584,4.706,4.688,0.7,0.884,-3.898
29049144:11:795,-2.932,1.78,9.102,3.312,-4.179,-4.92,3.629,1.42,1.084
29049144:11:795,1.255,-2.028,6.301,2.53,-2.005,-2.592,4.772,-3.792,-2.545
29049144:11:795,1.607,2.418,11.62,-3.025,-4.204,0.709,4.753,2.732,1.042
29049144:11:795,3.406,3.17,5.287,0.426,2.802,-0.233,2.362,4.574,4.219
29049144:11:795,3.75,0.597,13.434,0.092,3.301,0.464,3.292,2.394,4.952
29049144:11:795,4.359,1.178,10.333,0.213,3.771,1.244,2.086,-4.096,-4.643
29049144:11:795,-4.335,4.282,6.832,4.497,-4.658,-2.034,0.162,4.359,2.619
29049144:11:795,-1.889,0.385,10.508,3.917,0.762,-4.028,3.692,4.936,2.276
29049144:11:795,2.247,1.432,7.779,4.839,4.128,2.697,-4.314,1.364,2.882
29049144:11:795,-4.378,-4.455,9.65,-1.3,-2.466,-2.017,-0.745,2.494,4.886
29049144:11:795,1.255,-1.568,11.523,-4.085,3.915,1.774,4.092,2.402,2.172
29049144:11:795,1.62,4.443,5.055,3.327,-0.616,1.837,0.646,2.11,1.308
29049144:11:795,-4.078,4.058,8.466,4.847,-1.821,0.187,-4.419,3.232,-3.002
29049144:11:795,3.236,2.0,10.198,-4.169,-3.708,-1.227,2.569,4.893,-1.078
29049144:11:795,2.76,4.502,8.928,-2.862,-3.883,-1.783,1.597,-0.939,-3.011
29049144:11:795,3.871,0.361,7.755,2.366,3.523,1.685,1.72,0.631,-0.539
29049144:11:795,-4.146,-1.508,6.314,-1.598,1.679,2.248,1.975,-1.019,1.435
29049144:11:795,2.071,-4.03,11.749,-4.199,1.338,4.225,-1.157,-1.273,-4.142
29049144:11:795,0.308,-2.359,6.54,-4.929,3.303,-2.659,-3.019,3.68,2.643
29049144:11:795,2.37,3.424,12.386,1.636,3.379,-2.706,-3.916,-3.549,-4.414
29049144:11:795,-3.506,-0.013,8.428,-1.343,1.954,3.496,-1.915,2.989,2.069
29049144:11:795,2.002,-0.989,12.814,3.851,-4.09,0.261,3.589,-0.584,0.48
29049144:11:795,-1.591,-4.352,11.064,1.519,1.725,-3.277,-0.577,-2.557,-0.455
29049144:11:795,1.925,0.622,6.631,-4.449,-4.021,-4.056,4.983,-4.969,3.393
29049144:11:795,2.681,-1.223,14.021,-3.787,3.855,2.12,-1.339,-0.937,-2.087
29049144:11:795,-3.942,-3.47,12.285,3.777,4.147,4.75,0.211,-1.196,4.972
29049144:11:795,-1.794,-1.982,9.289,-4.545,-1.211,-1.673,-0.51,-1.623,3.468
29049144:11:795,-3.055,3.994,14.939,1.584,-1.3,4.102,3.657,-2.09,-2.804
29049144:11:795,-2.134,1.52,13.706,1.045,1.001,-1.698,3.703,-1.711,-1.616
29049144:11:795,-2.315,-0.743,5.243,2.568,1.757,1.39,2.818,3.073,0.159
29049144:11:795,-2.989,-0.002,8.231,-4.531,1.579,0.784,-0.998,2.09,4.98
29049144:11:795,-3.426,-2.334,11.153,0.285,-2.643,0.404,1.292,-3.862,-3.023
29049144:11:795,4.378,2.094,10.207,-3.76,1.792,-0.996,1.57,-0.217,1.507
29049144:11:795,-4.843,-0.336,7.875,-4.547,-2.487,3.245,0.901,-4.841,4.568
29049144:11:795,-4.557,-0.384,11.203,2.516,-2.083,1.024,4.985,-4.346,-3.559
29049144:11:795,-3.572,4.09,13.293,4.927,2.713,4.665,2.362,1.543,0.769
29049144:11:795,2.578,-2.348,11.69,4.48,-2.955,-1.493,1.57,1.11,1.044
29049144:11:795,3.707,-4.161,13.981,0.513,1.562,4.325,-1.806,-4.508,2.718
29049144:11:795,0.029,4.036,6.114,-1.167,1.463,-0.224,-3.367,2.391,-4.018
29049144:11:795,4.156,2.067,11.751,0.296,-1.841,-3.551,-3.526,4.951,-0.758
29049144:11:795,-4.813,2.164,8.286,2.686,-3.116,-3.705,3.809,-0.931,2.512
29049144:11:795,-3.989,1.372,9.587,1.756,1.785,4.971,-1.223,4.537,-0.577
29049144:11:795,-4.637,-4.518,12.836,1.948,0.91,-3.467,0.118,2.584,4.006
29049144:11:795,1.509,-2.139,13.001,4.456,1.109,0.846,0.149,-3.054,-3.579
29049144:11:795,-4.894,2.585,14.558,-2.178,-4.231,0.339,1.866,4.891,0.166
29049144:11:795,-0.431,-3.596,6.416,-4.205,-3.111,4.007,0.182,-0.664,1.876
29049144:11:795,-2.337,-3.095,11.596,4.346,0.409,-0.66,-1.637,4.777,-0.409
29049144:11:795,-3.768,0.343,13.03,3.514,2.221,-4.989,2.459,-2.916,4.088
29049144:11:795,-1.906,-0.797,11.363,0.221,-4.832,3.758,0.96,3.541,0.087
29049144:11:795,2.676,-4.012,5.059,-0.299,4.0,4.821,0.611,1.731,-3.6
29049144:11:795,-4.503,4.345,6.236,0.983,-0.102,4.368,-3.936,3.922,-4.0
29049144:11:795,-4.629,2.203,14.349,1.43,3.226,4.827,-4.126,2.496,-0.967
29049144:11:795,1.913,-2.541,7.297,-2.342,0.399,4.346,-1.822,1.849,-4.747
29049144:11:795,-4.871,1.221,7.495,2.179,2.093,-0.248,-4.618,3.939,-4.422
29049144:11:795,3.694,1.547,11.528,1.637,-4.897,-2.759,-1.268,3.463,-2.032
29049144:11:795,-4.487,2.441,6.737,3.242,-1.262,-0.266,3.122,3.276,-0.993
29049144:11:795,-1.389,-3.163,10.032,-3.871,1.53,-2.585,1.326,2.563,-0.831
29049144:11:795,-1.858,2.966,9.312,4.424,-1.79,-1.105,1.712,-1.042,-0.375
29049144:11:795,-0.102,-3.25,7.106,4.319,-1.733,4.839,-4.089,0.594,-1.07
29049144:11:795,-3.141,-1.278,9.279,-0.068,-3.032,1.386,4.458,3.628,-4.8
29049144:11:795,-4.576,2.891,13.753,-4.017,-2.432,1.832,-0.881,-4.1,-4.245
29049144:11:795,0.007,4.108,11.738,0.712,-2.049,-2.687,-1.997,1.061,2.722
29049144:11:795,1.565,-2.942,14.129,2.501,-1.787,1.446,3.064,4.582,-4.892
29049144:11:795,1.733,-2.23,11.833,4.049,2.305,4.325,-0.78,-0.103,-2.072
29049144:11:795,-2.049,-0.81,10.309,2.913,-3.279,4.527,-4.249,3.866,1.176
29049144:11:795,-4.329,3.751,6.35,-4.585,-2.285,2.285,0.49,0.596,-4.389
29049144:11:795,-3.942,-2.304,7.114,1.796,-2.606,1.852,-2.655,-2.073,-2.642
29049144:11:795,-1.46,-2.33,14.183,-1.118,4.952,-4.394,4.096,4.775,1.417
29049144:11:795,-4.937,-1.643,10.058,0.013,-0.753,2.682,3.661,2.034,-4.513
29049144:11:795,3.867,-0.818,10.521,-1.806,-0.485,-1.491,-2.204,-0.093,3.251
29049144:11:795,4.221,-2.942,6.529,0.727,4.757,2.281,3.173,-0.405,0.823
29049144:11:796,-3.571,-3.196,6.128,3.552,-4.204,3.879,0.545,2.86,2.328
29049144:11:796,3.93,0.95,11.823,0.348,-0.274,-3.597,3.795,2.649,-0.643
29049144:11:796,3.903,-2.735,6.581,-0.344,4.925,-1.33,-3.694,-4.176,-1.983
29049144:11:796,-4.475,-0.468,10.107,0.663,0.85,4.355,-3.308,2.994,-1.392
29049144:11:796,3.452,-2.005,9.509,-0.804,-2.122,1.611,-0.224,-4.313,-4.669
29049144:11:796,2.602,-2.706,13.605,-0.844,-2.537,4.081,4.752,-4.988,3.176
29049144:11:796,-1.427,4.218,10.408,-0.592,-3.975,3.852,2.227,-3.97,4.215
29049144:11:796,4.357,-3.737,7.798,0.311,3.544,-2.293,-1.861,-0.328,2.745
29049144:11:796,4.602,-1.511,8.132,-2.287,4.956,0.868,-0.572,-2.507,-4.276
29049144:11:796,-4.527,-4.822,11.195,-2.838,4.527,-3.983,2.694,1.411,3.894
29049144:11:796,0.856,-2.009,8.518,-0.507,3.905,3.749,-3.283,-0.159,0.415
29049144:11:796,-4.612,-2.67,14.401,-2.338,-2.671,0.04,-1.279,-0.317,-3.451
29049144:11:796,-1.196,3.468,8.625,3.357,-3.163,0.66,4.436,-1.0,-3.486
29049144:11:796,0.732,-3.982,13.112,2.253,-1.008,3.729,2.827,-3.777,4.533
29049144:11:796,1.604,-2.518,6.728,-4.839,-4.11,-3.576,0.58,-3.415,-4.032
29049144:11:796,-3.482,1.684,13.962,1.866,4.732,-4.671,-3.429,4.641,0.235
29049144:11:796,2.651,2.32,14.815,-2.5,0.14,1.209,-4.0,3.101,0.231
29049144:11:796,0.933,2.502,9.884,2.604,-2.498,4.341,-2.602,-3.208,-4.914
29049144:11:796,-2.858,2.934,12.225,-3.922,-3.254,3.919,1.855,-3.821,3.702
29049144:11:796,-1.98,-3.043,14.229,-4.239,-4.005,0.351,3.767,0.076,1.709
29049144:11:796,4.499,-1.448,10.167,4.755,-0.159,1.391,1.821,-0.384,-1.452
29049144:11:796,0.658,3.508,9.309,-0.042,3.163,0.469,-3.213,4.995,-3.934
29049144:11:796,4.02,-4.377,7.749,0.454,-1.529,0.722,0.644,4.918,3.607
29049144:11:796,1.978,4.149,11.08,-3.934,1.599,0.577,3.066,-1.76,3.087
29049144:11:796,-1.276,-4.577,10.524,-3.608,-2.209,-3.566,4.725,2.926,-3.418
29049144:11:796,4.551,-3.55,6.106,-3.695,2.837,3.676,-4.274,4.737,-1.196
29049144:11:796,-1.63,0.927,10.292,-3.552,-4.992,-1.284,-1.368,-0.23,2.957
29049144:11:796,2.917,3.193,8.243,-1.499,2.716,-3.399,-4.082,3.083,-4.029
29049144:11:796,-4.579,4.547,14.362,-2.031,-3.138,-2.519,3.34,4.082,-2.004
29049144:11:796,-1.624,1.788,13.609,-2.505,-1.3,-2.621,-4.132,2.013,4.124
29049144:11:796,0.616,2.193,6.786,3.473,3.982,3.028,-3.862,-0.83,1.703
29049144:11:796,2.547,3.222,5.139,-3.294,1.91,-3.807,-0.138,-1.35,-2.468
29049144:11:796,-0.048,-4.678,6.643,0.919,4.519,-3.682,-4.266,-4.478,-1.442
29049144:11:796,4.457,-1.831,12.912,-0.717,1.139,2.422,-3.587,0.192,-2.686
29049144:11:796,3.721,3.418,10.246,2.524,3.168,4.883,-0.199,-4.913,-2.895
29049144:11:796,-0.147,3.678,5.73,4.648,2.908,-2.545,2.192,0.809,-3.252
29049144:11:796,1.117,-3.319,14.511,-3.889,0.114,-4.879,0.162,-4.327,1.529
29049144:11:796,4.293,4.542,6.425,4.346,-4.301,0.589,-2.67,3.128,-2.123
29049144:11:796,-1.391,2.177,11.464,-3.925,3.407,4.704,1.004,-3.173,0.369
29049144:11:796,4.544,-4.668,7.173,4.964,-1.769,-1.615,1.381,-4.834,-1.259
29049144:11:796,-4.84,-3.123,13.885,2.446,4.241,-1.669,4.057,-0.304,1.91
29049144:11:796,2.946,4.884,13.749,-3.668,2.945,-4.24,-4.908,3.796,-2.19
29049144:11:796,1.688,4.032,14.88,4.504,2.628,-0.488,1.364,4.153,-1.244
29049144:11:796,-1.614,4.013,14.877,-1.465,-0.944,-0.914,-0.998,2.501,-0.284
29049144:11:796,0.319,2.976,9.913,-0.403,-2.056,-0.704,0.768,3.246,2.286
29049144:11:796,-2.79,1.714,12.82,0.992,2.5,0.676,-1.45,4.918,1.326
29049144:11:796,-1.542,4.366,9.495,2.41,4.69,1.862,3.295,-4.364,1.184
29049144:11:796,1.711,-2.229,6.682,-0.113,-1.395,4.946,-4.043,1.51,4.113
29049144:11:796,3.752,-1.241,13.384,-1.504,-4.718,-4.776,2.115,3.365,2.59
29049144:11:796,2.721,-3.383,13.51,3.507,1.181,-0.329,-1.38,-2.869,-4.582
29049144:11:796,-3.027,1.007,13.978,-0.201,-2.786,-3.506,2.24,0.224,-4.181
29049144:11:796,-0.83,4.542,14.248,-2.64,0.905,0.521,-4.517,-4.833,-1.176
29049144:11:796,3.353,1.8,8.639,2.459,0.755,4.592,3.413,4.113,-3.934
29049144:11:796,4.322,-1.228,14.337,-4.559,-3.345,0.718,-1.574,-2.067,-2.777
29049144:11:796,1.428,-4.078,9.645,2.125,2.278,0.607,-4.104,2.44,2.735
29049144:11:796,-0.836,3.286,11.268,-0.972,1.602,2.959,0.824,-3.859,-3.597
29049144:11:796,-4.36,0.742,11.133,-2.499,3.188,-1.384,2.343,4.484,1.142
29049144:11:796,-4.403,2.444,6.64,2.52,0.051,0.987,4.687,-2.051,3.644
29049144:11:796,3.224,-0.511,7.641,2.805,3.815,2.331,-3.56,2.504,-1.532
29049144:11:796,-0.608,1.854,14.516,4.792,0.716,-4.909,0.393,2.143,-3.987
29049144:11:796,3.463,-0.059,14.976,-2.574,-2.708,-0.531,-3.189,0.698,-2.707
29049144:11:796,-1.805,-3.075,13.639,2.326,3.691,4.409,-2.428,2.121,1.537
29049144:11:796,-4.434,2.322,5.273,-0.078,2.581,2.83,-1.541,2.911,-4.146
29049144:11:796,0.608,2.897,7.984,2.957,2.622,-3.033,1.032,1.93,-2.299
29049144:11:796,-0.193,-1.525,14.063,0.369,0.533,-0.853,-4.449,0.296,1.865
29049144:11:796,-1.895,-0.961,10.617,-1.96,-2.861,-3.03,3.688,-4.213,-1.286
29049144:11:796,2.65,2.713,5.593,0.809,-3.307,1.522,1.709,2.616,-2.533
29049144:11:796,3.427,-1.422,10.762,1.746,-0.026,-0.31,-2.722,-3.937,-1.146
29049144:11:796,1.3,2.051,6.933,-5.0,2.888,4.263,2.14,-1.802,-1.827
29049144:11:796,-3.812,2.595,5.127,-2.964,4.303,-4.024,-4.695,2.568,4.955
29049144:11:796,-2.989,0.255,8.562,-4.086,-2.905,-3.634,4.185,0.493,-0.436
29049144:11:796,2.414,-2.091,8.272,-2.239,-0.808,-0.337,-0.427,-3.728,-3.632
29049144:11:796,-2.245,1.888,5.268,3.588,2.449,-3.031,2.419,-2.911,3.686
29049144:11:796,3.845,-2.63,8.524,-2.118,-3.398,-2.322,-2.586,2.494,2.119
29049144:11:796,-3.49,0.24,9.081,-4.93,-4.436,-0.9,-3.55,3.2,-1.082
29049144:11:796,2.561,1.721,12.997,-4.246,0.766,-1.036,-2.295,4.982,-0.071
29049144:11:796,2.325,3.36,5.105,2.374,4.788,-2.897,0.896,2.347,0.376
29049144:11:796,-4.042,-2.88,12.373,-3.04,-0.813,0.361,0.841,-3.752,-3.531
29049144:11:796,-0.012,-4.448,10.922,-4.241,-0.991,0.109,-2.936,0.356,-0.789
29049144:11:796,-4.133,-1.098,10.946,-1.783,-1.936,2.537,1.974,3.447,0.26
29049144:11:796,1.755,3.22,10.768,-0.865,4.665,-1.106,1.714,-2.754,-4.042
29049144:11:796,-2.828,-0.968,12.262,-4.962,-4.487,-3.704,-2.648,-3.637,3.95
29049144:11:796,3.098,-4.463,10.844,1.978,3.022,4.191,-1.541,1.032,-2.693
29049144:11:796,-1.138,-3.804,10.761,-4.777,-0.395,-4.767,-4.75,0.976,-0.164
29049144:11:796,-3.159,3.773,6.894,2.354,3.74,-3.142,-4.34,-4.404,-3.724
29049144:11:796,3.017,-0.854,14.402,-0.853,4.241,-3.061,-3.586,0.31,1.423
29049144:11:796,-0.004,3.981,12.52,-4.4,-0.477,-1.298,-3.258,2.498,-4.252
29049144:11:796,-3.736,1.572,8.847,0.506,-2.952,-1.923,0.341,-2.378,1.785
29049144:11:796,-2.443,2.829,9.69,-4.421,2.52,-1.137,2.44,3.521,2.13
29049144:11:796,-3.748,0.461,5.153,2.416,-3.329,-0.209,-0.57,-3.114,-1.607
29049144:11:796,3.403,0.851,6.219,-4.858,-3.137,0.548,-2.579,0.461,-3.588
29049144:11:796,4.559,-2.245,13.877,-0.022,-3.497,-4.068,0.591,-3.323,-0.995
29049144:11:796,2.595,0.829,11.801,-0.597,1.434,-2.003,3.463,1.781,-2.807
29049144:11:796,-2.205,-4.765,8.19,-4.208,-2.829,4.191,4.958,-3.641,-3.779
29049144:11:796,1.406,0.91,13.022,-1.561,0.714,-2.308,-2.295,2.969,-4.029
29049144:11:796,2.899,4.229,7.492,-4.993,2.577,0.228,3.904,-1.468,2.758
29049144:11:796,1.716,-4.564,13.654,0.22,2.925,-4.955,-2.83,1.122,4.14
29049144:11:796,2.998,-4.518,14.69,-4.896,-1.835,-2.986,1.789,4.084,-3.431
29049144:11:796,1.684,2.619,8.951,4.74,4.523,-4.679,1.716,4.961,0.194
29049144:11:796,2.448,1.949,8.815,4.074,-1.066,1.585,-0.833,-4.401,-4.703
29049144:11:796,2.166,2.95,10.59,-2.002,4.93,2.567,2.639,-2.916,0.685
29049144:11:796,-3.774,-1.783,7.53,2.185,-3.752,4.216,0.164,-2.957,1.049
29049144:11:796,0.001,-4.219,14.785,3.706,4.833,-2.291,1.013,-4.831,-1.578
29049144:11:796,4.135,0.808,8.99,4.038,1.36,0.738,2.351,3.018,-2.184
29049144:11:796,-1.365,-3.151,5.664,-2.914,-2.937,0.735,-3.04,1.653,1.971
29049144:11:796,-1.783,-0.799,12.089,4.264,-1.504,-1.939,-4.096,-1.832,0.088
29049144:11:796,4.479,1.304,9.62,3.903,4.01,-1.369,4.353,-0.005,0.693
29049144:11:796,1.348,1.98,14.313,0.226,0.565,-3.287,-1.968,-3.395,3.731
29049144:11:796,3.864,-1.118,10.17,4.334,2.745,-2.085,-4.448,-3.664,-3.836
29049144:11:796,-2.86,1.547,7.652,-4.956,1.344,2.338,0.987,-1.753,2.567
29049144:11:796,-2.695,-1.556,11.702,-3.598,-3.198,-4.581,2.45,-4.349,2.951
29049144:11:796,1.676,2.09,6.747,-3.938,-0.464,0.388,1.609,-2.421,-4.738
29049144:11:796,-0.057,1.975,12.694,-0.555,3.864,-2.595,1.991,-2.46,4.061
29049144:11:796,0.156,4.327,14.093,4.403,-3.988,-4.443,3.706,2.123,4.242
29049144:11:796,3.362,3.148,11.095,-1.32,-1.402,1.112,-3.255,2.509,2.259
29049144:11:796,0.953,2.494,8.03,-0.095,-1.298,1.647,-4.284,-2.608,4.039
29049144:11:796,-0.978,-3.238,14.257,-2.191,-0.165,-2.017,1.775,3.351,-1.944
29049144:11:796,3.224,0.348,7.572,2.284,-1.882,4.602,-4.055,0.6,-3.574
29049144:11:796,3.234,0.083,13.671,3.552,3.491,3.311,-2.263,4.054,-3.847
29049144:11:796,-4.138,-3.314,9.411,2.756,-2.519,-4.236,4.54,-2.316,1.378
29049144:11:796,-4.754,1.495,8.252,1.708,2.933,-0.382,-2.247,-2.896,4.477
29049144:11:796,1.46,0.133,5.467,-1.785,-0.057,4.82,-2.174,1.302,-2.322
29049144:11:796,-4.677,-0.55,12.082,-4.869,0.978,2.278,1.076,1.03,-1.647
29049144:11:796,2.69,2.992,9.933,-2.756,1.253,4.248,4.929,4.44,3.542
29049144:11:796,0.521,-2.681,6.81,3.509,-2.166,-3.195,-1.702,-2.51,-4.214
29049144:11:796,4.779,-3.657,12.301,-2.793,-4.251,0.012,-3.154,-2.286,3.934
29049144:11:797,4.93,0.742,11.963,0.535,4.073,-4.034,-4.734,3.683,-4.735
29049144:11:797,-4.9,-2.914,7.362,-2.829,0.187,-0.665,2.749,-2.402,-2.255
29049144:11:797,3.886,4.927,13.782,-3.562,-4.403,0.26,-1.464,3.495,4.342
29049144:11:797,4.606,-4.824,5.672,1.551,-1.589,4.258,-2.204,-2.597,1.521
29049144:11:797,4.168,-1.874,6.666,-4.843,0.068,3.259,4.878,0.097,1.162
29049144:11:797,1.616,-0.007,12.584,-0.076,-4.145,-1.272,3.204,3.446,-3.166
29049144:11:797,-3.002,4.238,14.756,-4.346,4.845,4.3,-1.048,1.568,0.502
29049144:11:797,4.737,-1.897,14.918,0.693,4.858,-2.274,-0.925,-3.275,3.908
29049144:11:797,1.192,1.476,9.449,-0.956,-4.014,0.38,-4.728,-1.564,2.94
29049144:11:797,4.05,-4.426,11.408,-1.155,-0.913,4.252,-2.648,-3.763,-1.563
29049144:11:797,4.779,-4.44,9.229,-4.741,-4.629,-4.935,-3.041,-0.208,1.66
29049144:11:797,-0.394,-1.892,5.684,0.069,2.494,-4.817,2.564,-0.101,-1.844
29049144:11:797,4.459,3.9,13.163,-3.491,-3.55,1.836,4.31,-0.402,-0.929
29049144:11:797,-2.571,2.021,7.319,4.506,3.286,-3.645,-3.318,1.642,-0.797
29049144:11:797,-3.654,4.388,9.891,-0.522,-0.669,1.956,-4.566,-4.838,-0.609
29049144:11:797,-2.93,3.018,13.408,-3.257,-4.382,-1.126,-3.176,-4.352,-0.747
29049144:11:797,-2.935,-4.734,11.641,2.254,2.148,0.274,-4.869,1.661,0.305
29049144:11:797,-2.828,0.505,5.672,-1.943,-3.552,-2.547,1.821,-1.197,-0.729
29049144:11:797,1.545,-3.966,14.782,-3.572,0.641,-1.19,-3.746,0.484,1.666
29049144:11:797,0.715,-2.108,6.027,-2.302,-3.89,-3.144,-2.141,4.636,1.278
29049144:11:797,-4.159,-0.633,14.002,-3.702,4.138,0.362,-2.929,0.416,4.178
29049144:11:797,1.129,-0.829,10.21,2.885,3.53,4.394,2.367,2.466,-1.191
29049144:11:797,-4.04,2.545,13.255,4.776,3.517,-2.048,1.006,1.667,0.856
29049144:11:797,-0.139,0.607,12.167,-0.111,-1.329,1.173,-2.431,0.252,-1.381
29049144:11:797,-2.655,3.117,12.606,-0.791,-4.469,2.18,2.89,-4.997,0.737
29049144:11:797,4.373,4.841,9.134,1.599,-3.432,4.55,0.435,2.473,-2.26
29049144:11:797,0.878,1.47,13.837,-1.48,-2.27,3.299,3.831,-3.337,3.178
29049144:11:797,4.829,1.134,13.48,-4.76,3.466,4.92,-2.82,-1.677,-4.004
29049144:11:797,-3.97,3.292,10.574,2.881,-4.955,4.619,-2.619,-1.0,2.584
29049144:11:797,-4.865,-0.724,5.552,-2.132,-2.676,2.878,-0.375,1.876,-3.899
29049144:11:797,1.034,-1.954,9.013,-4.373,0.823,4.065,-2.01,-1.375,3.125
29049144:11:797,4.053,0.553,7.842,-4.161,2.38,-1.401,-0.15,3.808,-2.602
29049144:11:797,-3.402,-4.943,12.678,1.199,-4.191,0.753,-1.56,1.487,-1.928
29049144:11:797,-1.805,-0.703,11.362,1.679,-1.772,2.746,-4.036,2.323,-3.525
29049144:11:797,0.334,-1.306,10.032,2.224,0.154,0.623,-3.855,1.224,2.235
29049144:11:797,3.577,3.765,14.994,-3.131,-1.063,-4.995,-1.617,-4.021,-2.141
29049144:11:797,0.761,-3.671,12.013,1.426,1.108,-3.681,-3.768,2.964,0.063
29049144:11:797,-2.319,2.347,14.714,0.256,-4.122,1.424,-2.752,0.408,4.106
29049144:11:797,1.405,-1.79,5.032,2.638,-2.266,-3.914,-1.395,-4.295,-3.272
29049144:11:797,-3.777,-2.831,7.174,0.476,-0.753,-0.857,3.22,-0.524,-3.025
29049144:11:797,2.474,-0.838,13.599,2.552,3.484,-1.439,3.767,-1.202,-3.497
29049144:11:797,-4.965,4.918,12.687,-3.311,4.439,0.921,-1.979,4.768,4.945
29049144:11:797,-4.936,4.607,10.231,-3.404,-3.952,3.725,4.915,-2.444,-2.227
29049144:11:797,-1.977,1.78,14.646,3.514,-1.557,1.486,-0.63,-2.959,-3.269
29049144:11:797,3.755,-4.511,14.325,3.202,-4.593,-4.046,1.927,1.314,-3.467
29049144:11:797,1.813,4.524,13.174,-2.315,0.113,2.766,2.701,-3.699,-0.061
29049144:11:797,2.636,-2.029,12.672,-1.987,-0.596,1.562,1.861,2.807,-0.5
29049144:11:797,2.027,-0.065,7.314,4.898,-2.524,-4.842,-2.319,3.486,2.052
29049144:11:797,-4.035,-3.517,9.386,3.288,4.44,3.573,4.282,2.277,-2.416
29049144:11:797,-3.787,0.135,5.235,-0.619,-3.209,2.235,3.618,-3.599,-4.929
29049144:11:797,2.239,2.364,13.34,-1.951,-0.278,1.161,-4.889,-0.119,0.406
29049144:11:797,-1.491,1.487,6.63,-4.71,3.867,1.03,2.77,-3.754,-0.732
29049144:11:797,-0.677,-1.416,13.473,-1.998,2.531,-3.893,4.653,-0.693,4.772
29049144:11:797,-2.602,-0.543,8.078,-3.238,1.213,-2.869,-4.53,0.201,-2.504
29049144:11:797,-2.932,0.089,10.615,0.214,4.159,1.843,-1.738,-0.458,0.267
29049144:11:797,1.79,-2.987,10.509,4.54,-1.592,-2.186,-2.794,-1.233,3.37
29049144:11:797,-0.735,-1.743,9.839,4.897,-1.569,-2.851,2.519,-2.104,2.93
29049144:11:797,-4.159,1.141,9.121,2.945,4.734,-4.394,4.922,-1.441,-0.152
29049144:11:797,4.863,-4.396,11.905,3.916,-2.065,-2.214,1.896,0.16,-3.793
29049144:11:797,0.597,0.926,7.982,-3.537,-3.96,-0.931,1.806,-3.752,-0.246
29049144:11:797,-3.785,-3.228,14.925,1.102,-2.826,-3.256,0.981,2.332,-4.279
29049144:11:797,-4.217,-0.063,6.641,4.819,-0.369,-0.881,-4.691,4.426,-4.243
29049144:11:797,4.06,4.693,13.839,-2.872,-3.346,4.658,-3.409,-1.889,2.72
29049144:11:797,1.519,-1.163,14.622,3.009,-3.373,2.557,2.476,-0.309,-3.784
29049144:11:797,1.847,2.295,12.244,-0.895,2.957,-2.325,4.186,-4.496,4.193
29049144:11:797,3.986,-0.509,12.75,-0.055,3.1,4.051,-1.349,-1.284,-2.077
29049144:11:797,-3.95,4.402,9.565,-1.711,2.518,0.179,0.115,1.058,-3.596
29049144:11:797,-2.448,-0.28,6.21,4.18,-0.628,3.356,0.098,1.511,-0.418
29049144:11:797,3.828,2.945,11.601,-3.997,1.843,1.623,-2.011,1.402,-0.708
29049144:11:797,1.33,0.295,5.183,-2.31,-2.224,0.178,-3.185,-4.724,2.519
29049144:11:797,-1.51,1.812,14.17,2.456,4.087,-2.106,-4.635,2.314,0.546
29049144:11:797,3.215,2.681,9.847,1.386,-0.043,-3.996,3.417,2.142,1.793
29049144:11:797,-3.406,-4.833,8.875,0.758,3.646,2.962,-0.539,0.136,-0.336
29049144:11:797,-2.612,-1.158,7.627,1.923,2.321,-4.853,1.811,0.321,4.766
29049144:11:797,-2.351,-1.733,13.888,-1.576,3.235,-3.462,-3.725,-4.331,-1.134
29049144:11:797,2.296,0.547,5.504,1.92,0.182,-0.435,0.28,2.01,0.966
29049144:11:797,-1.837,1.283,13.256,3.82,-1.536,1.377,0.264,-3.653,0.287
29049144:11:797,0.379,4.489,11.405,-4.999,-0.298,2.331,0.069,3.035,1.532
29049144:11:797,0.982,0.469,5.414,-1.967,4.936,-4.972,-4.47,-3.93,-0.685
29049144:11:797,2.712,1.26,5.352,0.173,-1.764,-4.564,1.358,2.966,-4.274
29049144:11:797,-3.212,-4.746,8.788,-1.8,0.75,-4.983,0.34,-0.94,1.529
29049144:11:797,2.839,-3.738,7.259,2.366,-1.078,2.025,4.606,2.414,1.529
29049144:11:797,4.09,3.233,8.763,1.556,3.291,-0.098,1.334,-3.132,-1.915
29049144:11:797,3.533,4.008,11.659,-0.731,-1.498,3.552,-4.035,4.621,-2.683
29049144:11:797,-2.055,-2.28,13.804,-0.523,-4.799,1.776,-3.079,-4.208,-4.657
29049144:11:797,3.42,3.458,5.31,-1.339,0.564,-0.892,4.797,-4.294,-3.907
29049144:11:797,3.655,3.183,8.618,-3.687,4.628,-4.014,3.359,3.108,0.339
29049144:11:797,4.163,0.326,13.526,-0.313,-2.252,-3.617,2.933,1.934,-0.979
29049144:11:797,-3.503,3.712,7.178,-3.043,0.209,-0.79,3.245,3.351,4.88
29049144:11:797,-3.955,1.993,14.856,-0.675,0.199,4.899,3.227,-4.033,-0.811
29049144:11:797,2.547,3.314,9.802,-0.92,0.635,-0.99,0.914,2.88,2.868
29049144:11:797,4.431,3.958,13.648,1.124,3.805,-3.43,-2.547,2.534,2.961
29049144:11:797,4.018,3.083,6.959,-1.128,3.861,-2.348,2.315,0.139,-1.717
29049144:11:797,-2.0,-2.687,11.113,-4.574,-2.21,2.192,0.22,3.056,4.327
29049144:11:797,-2.585,-2.845,9.042,1.341,0.389,-4.804,1.059,-0.59,0.828
29049144:11:797,2.72,2.113,5.555,3.311,-1.384,0.708,3.838,2.968,4.338
29049144:11:797,-0.135,-3.08,12.755,-1.559,3.41,3.836,-3.426,1.094,-0.547
29049144:11:797,-3.712,1.062,12.753,0.255,0.3,2.962,2.648,2.099,3.825
29049144:11:797,4.979,3.534,12.676,2.794,3.968,3.978,2.154,-2.998,1.207
29049144:11:797,2.793,-0.537,9.722,1.717,-3.865,2.826,-0.201,-2.125,-1.974
29049144:11:797,-2.033,0.46,9.775,3.296,0.116,1.47,-2.168,4.807,3.159
29049144:11:797,-2.983,-4.216,14.906,-3.497,4.835,-0.715,0.766,1.997,0.418
29049144:11:797,3.534,-1.622,14.602,2.966,1.786,-2.006,-3.155,0.313,3.44
29049144:11:797,-4.466,0.39,13.89,3.683,-4.015,-2.78,-1.211,-1.74,0.818
29049144:11:797,-1.768,0.382,5.87,2.51,-4.644,1.095,-3.065,2.557,3.104
29049144:11:797,-3.388,-4.521,6.774,-0.232,-1.128,0.093,-4.751,3.607,-0.075
29049144:11:797,-1.323,3.977,9.127,-3.211,-3.833,4.376,-0.964,-0.527,-2.325
29049144:11:797,-3.518,-0.194,13.257,2.246,0.387,4.524,-2.865,2.594,-0.686
29049144:11:797,-1.624,-2.912,9.825,-0.929,-4.991,4.467,1.358,2.857,-0.895
29049144:11:797,1.784,1.482,10.623,0.544,-3.771,0.009,4.218,-1.418,-3.492
29049144:11:797,-1.711,2.505,10.085,-4.054,-3.591,0.957,-2.525,-2.188,-2.814
29049144:11:797,-3.999,-4.403,11.118,3.795,0.844,0.463,-3.762,-3.055,1.068
29049144:11:797,4.806,-0.188,11.738,-4.578,1.944,-2.907,0.672,3.846,-0.499
29049144:11:797,-1.656,3.152,13.957,-2.084,2.285,-0.208,-4.05,0.039,-1.22
29049144:11:797,2.286,-3.631,6.394,3.449,3.367,-2.507,2.089,0.193,2.806
29049144:11:797,3.169,-2.224,7.177,2.496,-4.984,-2.008,3.577,-1.288,-4.908
29049144:11:797,-3.854,0.346,9.208,-4.295,3.626,-4.335,4.768,-4.925,-2.437
29049144:11:797,3.328,-2.465,8.255,4.483,2.649,2.387,-2.439,-0.778,1.935
29049144:11:797,-1.593,3.843,12.228,-0.971,-2.507,-4.374,0.958,-1.512,3.273
29049144:11:797,-4.719,0.674,6.119,-0.372,-1.725,1.72,0.964,-4.533,0.846
29049144:11:797,-4.23,0.569,8.18,2.968,2.182,-1.629,-0.276,-2.505,1.396
29049144:11:797,-0.966,1.85,9.736,-4.557,-4.887,3.375,3.141,1.866,1.914
29049144:11:797,1.702,4.443,13.306,4.345,-0.126,-3.168,0.397,-4.371,-4.892
29049144:11:797,-3.221,-0.823,11.401,-3.796,-4.657,-3.389,-2.623,-1.018,-2.298
29049144:11:797,-1.169,1.822,6.296,2.229,-1.193,4.536,-2.262,-0.759,-1.095
29049144:11:797,1.386,-3.366,10.993,-4.839,-2.862,2.248,-0.957,-2.36,0.189
29049144:11:797,3.407,2.272,6.397,4.511,1.667,-4.157,-1.048,1.18,-0.235
29049144:11:797,-0.763,-3.392,7.802,2.674,4.156,2.881,3.234,-3.216,3.703
29049144:11:798,1.691,-3.821,10.814,1.191,-3.561,-0.531,4.731,-2.336,-2.315
29049144:11:798,-2.209,-1.379,14.817,-2.687,1.396,-4.076,-0.296,-4.217,-4.493
29049144:11:798,0.551,-4.715,5.857,3.13,-1.471,0.216,1.346,2.231,-4.627
29049144:11:798,0.571,-3.975,11.945,-0.677,-2.401,4.769,-1.536,3.143,0.867
29049144:11:798,4.601,-4.751,10.793,4.6,-0.341,3.35,-0.952,3.492,-3.294
29049144:11:798,2.964,2.431,12.99,-1.101,-2.308,3.319,2.94,3.319,3.436
29049144:11:798,-3.335,-1.857,13.011,-1.571,-0.095,-2.809,4.935,-3.18,-0.236
29049144:11:798,1.057,-3.349,8.019,1.749,3.693,4.32,-1.433,-3.372,0.066
29049144:11:798,-2.825,0.695,14.291,0.754,-0.824,-1.981,-4.202,2.45,-0.939
29049144:11:798,0.903,-4.747,12.202,2.708,-4.15,1.517,2.02,1.201,4.009
29049144:11:798,-1.436,-1.792,10.965,2.88,0.345,1.066,3.837,-0.864,3.641
29049144:11:798,-1.583,3.96,6.464,-0.973,3.909,1.218,4.744,-1.113,3.619
29049144:11:798,3.83,-1.438,11.403,1.685,-4.119,-3.287,3.148,-3.75,-3.571
29049144:11:798,-0.881,3.715,6.079,-0.565,1.1,2.614,-0.027,-2.958,-1.811
29049144:11:798,0.336,-1.02,8.766,-1.527,4.064,-2.034,-3.155,-2.54,-4.18
29049144:11:798,1.911,-3.245,8.929,3.051,-0.995,0.25,3.365,0.189,-1.048
29049144:11:798,-0.446,-0.659,11.067,-0.204,2.571,-1.679,0.582,4.214,1.856
29049144:11:798,2.291,3.19,12.738,1.404,4.377,-0.741,-0.117,3.289,-2.61
29049144:11:798,-4.908,-4.24,9.464,4.038,-4.855,-2.003,2.089,-0.333,2.042
29049144:11:798,-2.581,3.407,8.99,-1.603,3.205,4.236,0.593,0.82,4.316
29049144:11:798,0.214,2.256,5.013,-3.505,1.797,0.896,-3.27,4.758,-1.594
29049144:11:798,0.773,4.979,9.148,4.118,-2.591,0.976,-2.664,-2.742,4.162
29049144:11:798,-0.398,-0.309,14.441,2.302,-0.671,0.361,-1.34,2.555,4.41
29049144:11:798,4.994,2.105,8.02,0.009,-2.583,-0.1,1.164,4.183,0.939
29049144:11:798,2.828,-2.74,8.327,-1.846,1.079,0.244,4.637,4.154,3.213
29049144:11:798,2.225,-1.993,10.608,2.154,-4.475,-3.417,2.695,3.753,2.32
29049144:11:798,-2.718,-2.055,10.74,-4.041,-0.538,4.861,-2.36,-4.667,-4.276
29049144:11:798,0.7,-4.712,5.366,-0.65,0.314,-3.633,-3.507,3.05,0.534
29049144:11:798,2.392,1.192,5.798,-0.132,1.334,-1.315,-0.303,-2.685,0.817
29049144:11:798,3.071,-3.035,11.157,-1.259,-4.063,-3.679,1.083,-2.263,-1.722
29049144:11:798,3.717,2.207,12.045,1.887,-2.769,3.339,-2.396,1.309,2.688
29049144:11:798,-3.096,-4.115,9.117,-4.801,-3.381,-3.826,-1.634,-2.306,-1.87
29049144:11:798,4.385,-3.213,14.117,1.116,-1.385,-2.999,2.205,1.254,-3.115
29049144:11:798,4.317,0.137,7.968,2.235,-3.177,-1.967,-4.126,-0.688,1.903
29049144:11:798,2.968,-2.232,9.991,1.85,-0.405,-0.943,3.145,4.08,2.771
29049144:11:798,-3.809,-3.733,6.24,0.528,4.666,0.514,-4.847,-2.496,1.977
29049144:11:798,-1.006,-4.659,13.528,0.012,1.991,4.663,0.319,-4.086,-2.961
29049144:11:798,-4.895,-1.225,14.851,-1.771,1.708,1.671,2.9,2.586,3.951
29049144:11:798,3.376,-3.961,12.153,3.608,-2.743,-0.071,3.015,-2.16,-0.665
29049144:11:798,1.606,-1.382,11.002,-3.869,2.565,0.302,4.47,-0.724,0.398
29049144:11:798,-2.198,-1.182,11.97,0.94,-3.238,3.891,4.213,-4.956,-0.17
29049144:11:798,-3.664,-2.391,13.997,0.022,-2.588,4.713,-3.134,3.454,-3.997
29049144:11:798,-1.633,3.072,10.171,-3.977,1.363,1.931,-4.348,-0.585,2.128
29049144:11:798,1.456,4.607,10.746,3.95,0.944,-3.933,4.76,-3.379,0.374
29049144:11:798,4.206,4.376,6.207,4.238,0.877,-4.748,0.011,-0.943,-0.977
29049144:11:798,0.818,-3.438,12.645,2.591,-3.439,4.697,-3.843,-1.19,0.03
29049144:11:798,2.251,-3.083,6.026,1.113,0.987,-4.528,4.939,1.762,2.843
29049144:11:798,3.566,-3.651,7.326,2.571,-1.127,0.123,-3.39,0.257,-0.305
29049144:11:798,-1.336,4.552,14.426,-4.619,-3.455,1.368,-1.889,-2.252,1.82
29049144:11:798,-0.413,3.936,12.606,2.446,-2.103,2.209,-2.658,-1.109,-4.876
29049144:11:798,-1.974,0.054,11.158,-3.173,-3.66,-4.808,2.046,4.229,-4.833
29049144:11:798,-4.516,0.822,6.326,2.966,4.052,-3.61,3.461,-1.594,-1.089
29049144:11:798,4.036,2.233,13.007,1.629,2.998,2.326,2.792,-1.076,4.942
29049144:11:798,4.732,-3.265,12.778,4.444,4.831,3.874,3.983,3.305,2.647
29049144:11:798,0.227,-2.734,6.368,-2.599,3.991,0.886,3.569,4.054,-1.796
29049144:11:798,4.314,0.244,11.826,-0.799,1.653,4.211,2.57,1.482,4.482
29049144:11:798,2.15,-3.387,11.366,3.982,2.008,1.531,1.991,3.644,3.433
29049144:11:798,4.167,3.916,9.368,0.217,1.181,-1.339,-0.639,-2.176,-4.825
29049144:11:798,-2.635,1.751,11.907,3.223,1.402,-4.913,4.023,-0.684,-3.321
29049144:11:798,-2.205,1.799,13.46,-3.225,-4.369,0.959,-4.771,0.652,3.335
29049144:11:798,-4.605,4.456,7.357,-0.555,-4.884,-4.029,0.273,-2.348,-1.649
29049144:11:798,-1.985,4.923,11.53,0.424,0.078,1.287,-2.376,4.846,3.079
29049144:11:798,3.246,-3.529,11.822,1.744,-2.986,0.355,0.365,2.408,-4.558
29049144:11:798,-3.656,0.996,14.263,-3.823,-0.334,-3.328,-1.659,0.815,4.817
29049144:11:798,3.833,-2.071,12.454,1.245,0.767,-0.784,3.869,1.78,-2.238
29049144:11:798,-4.602,-1.561,9.876,2.116,2.048,-1.26,-4.564,-0.59,0.398
29049144:11:798,2.429,-0.259,8.78,3.619,-0.398,0.648,-2.129,2.135,0.537
29049144:11:798,-0.518,-3.704,9.113,1.974,-0.222,-2.812,0.272,-0.375,4.331
29049144:11:798,-4.964,3.071,7.581,-0.975,4.033,-4.037,3.996,-1.672,-3.456
29049144:11:798,-1.129,-3.161,12.033,-3.691,1.613,2.586,-4.334,-4.645,4.986
29049144:11:798,-3.677,1.613,7.529,1.677,-2.493,-0.341,-1.886,1.988,0.099
29049144:11:798,-2.111,-1.171,13.306,1.173,2.627,-2.832,-4.772,-4.242,1.931
29049144:11:798,-1.365,2.166,10.828,-4.059,-0.911,0.439,-0.9,1.052,-0.911
29049144:11:798,0.857,-2.537,12.677,-0.698,2.472,-2.322,-0.165,-4.716,2.322
29049144:11:798,-4.751,2.645,9.684,4.899,3.472,-1.397,3.57,2.462,2.638
29049144:11:798,2.805,2.736,7.792,1.232,-3.953,1.43,-1.882,-2.995,4.482
29049144:11:798,-3.268,-4.209,7.142,-0.348,1.274,-1.427,2.326,0.837,1.519
29049144:11:798,3.847,2.052,6.349,-2.942,-4.418,3.249,-2.476,-1.429,-4.938
29049144:11:798,-4.233,-3.825,6.115,1.502,4.14,-1.024,3.547,-0.771,-4.025
29049144:11:798,-1.159,-2.532,9.319,3.251,-3.259,3.278,-4.678,-1.632,4.709
29049144:11:798,-1.921,2.905,13.436,1.854,-4.293,-2.121,-2.296,-2.05,4.929
29049144:11:798,-2.393,1.208,5.527,4.003,3.332,1.065,-0.796,-2.182,3.955
29049144:11:798,3.138,-3.58,13.728,-0.641,3.242,-0.314,0.483,3.002,-4.34
29049144:11:798,3.027,-1.871,13.758,-3.657,-0.71,-2.598,-3.427,1.986,2.726
29049144:11:798,-4.713,3.864,10.42,1.527,1.464,3.345,0.592,-1.292,-0.185
29049144:11:798,0.49,-0.593,5.233,3.156,-4.784,3.654,-1.085,2.756,-4.29
29049144:11:798,-1.365,-0.136,12.043,-3.149,3.495,3.516,2.789,1.699,2.374
29049144:11:798,-0.505,-4.568,5.577,2.549,-1.81,0.551,3.56,3.748,-3.382
29049144:11:798,-0.715,1.971,5.281,2.906,4.154,0.567,2.253,3.84,-2.007
29049144:11:798,-3.163,-4.926,9.582,2.67,-0.341,0.622,-3.261,-2.584,-0.263
29049144:11:798,-1.665,-3.469,9.194,1.868,1.822,-4.205,-1.136,-2.034,0.56
29049144:11:798,-4.109,0.997,7.431,4.258,1.68,2.784,-0.032,-4.293,0.432
29049144:11:798,0.483,-1.164,13.399,-3.127,0.668,-4.649,-0.197,-4.876,-3.138
29049144:11:798,-4.943,-1.751,9.3,0.993,-2.593,1.698,-2.861,4.821,1.002
29049144:11:798,-1.566,4.97,7.594,-2.474,0.941,4.297,0.715,2.333,-3.869
29049144:11:798,-3.571,-3.145,6.726,4.289,2.699,-4.986,-3.798,0.741,-4.988
29049144:11:798,-1.752,4.824,10.124,4.769,-4.711,-1.609,-2.029,0.111,-3.298
29049144:11:798,0.007,1.778,8.151,-0.901,4.638,-4.356,-3.623,2.686,1.066
29049144:11:798,-4.281,-4.207,14.448,-3.805,3.42,-3.829,-3.721,-1.977,-0.076
29049144:11:798,-3.553,3.569,9.012,2.643,-3.147,1.27,3.902,-4.081,-3.93
29049144:11:798,-1.437,-0.694,8.035,2.068,-0.903,2.93,-3.819,-0.869,0.295
29049144:11:798,3.382,1.582,10.352,3.036,-2.662,-4.297,-2.827,4.342,2.831
29049144:11:798,-4.366,-0.707,7.681,-1.835,-0.269,2.048,-4.421,3.355,-0.953
29049144:11:798,2.933,1.382,10.468,3.193,3.995,0.444,0.542,2.097,2.557
29049144:11:798,0.083,2.105,12.408,3.369,0.661,4.205,2.112,3.651,-4.783
29049144:11:798,-0.306,-1.694,7.309,1.271,2.576,2.579,3.257,-0.126,-2.926
29049144:11:798,-2.383,3.306,13.072,-2.78,0.192,2.495,1.821,3.986,0.866
29049144:11:798,-2.026,-3.1,5.312,1.026,-4.102,-4.197,1.579,-2.348,-3.38
29049144:11:798,-0.56,-2.243,9.85,2.109,-3.382,-2.345,-3.829,1.417,-4.338
29049144:11:798,2.681,-2.516,12.114,-0.982,0.841,-3.032,0.24,1.773,4.717
29049144:11:798,4.806,1.519,14.984,-2.193,-2.759,1.876,-1.096,-0.4,-4.31
29049144:11:798,-4.586,-1.533,8.87,1.439,3.685,2.282,0.539,-0.226,-2.063
29049144:11:798,-2.467,-0.91,12.551,-3.704,3.162,-4.981,3.161,2.17,2.517
29049144:11:798,2.233,-2.271,5.697,3.248,3.275,2.386,2.002,-0.906,-4.982
29049144:11:798,4.031,2.419,6.953,-0.977,-0.309,4.904,-2.495,2.929,2.06
29049144:11:798,-4.088,-3.684,6.596,-1.316,-4.575,3.213,3.764,2.738,1.956
29049144:11:798,1.467,0.715,12.728,-3.322,-1.164,-2.418,1.978,-1.776,-4.859
29049144:11:798,4.855,-1.636,5.56,-4.474,-2.911,-2.405,3.539,-4.036,3.956
29049144:11:798,-3.766,-3.209,5.762,-3.988,-0.379,-3.928,1.909,3.202,4.626
29049144:11:798,-0.168,-1.991,10.041,0.203,-1.62,0.591,-3.876,3.158,-2.009
29049144:11:798,-0.859,2.841,12.537,2.51,-2.573,-3.431,2.559,-2.241,-3.768
29049144:11:798,-1.789,-1.867,10.818,3.688,-2.1,-1.218,-3.238,0.664,4.574
29049144:11:798,4.917,2.246,5.223,-0.684,-2.265,-0.669,-0.885,-1.167,-0.279
29049144:11:798,3.042,2.375,12.333,-0.105,-3.549,4.749,-1.709,-2.895,1.555
29049144:11:798,-0.929,-0.998,7.443,1.481,4.76,4.403,-2.923,2.379,4.208
29049144:11:798,-2.527,-3.223,14.554,3.531,0.353,2.025,-1.278,0.929,-1.194
29049144:11:798,0.667,-4.975,11.771,3.234,-4.025,-4.96,-2.254,4.723,-0.137
29049144:11:798,2.297,0.589,8.384,3.327,-1.284,4.585,4.933,-0.705,4.062
29049144:11:799,2.955,-1.121,8.016,-0.784,-2.165,1.934,-2.377,0.725,1.987
29049144:11:799,-0.11,-1.409,10.506,4.717,-2.83,2.655,-0.143,-1.493,4.545
29049144:11:799,-2.585,-0.289,12.015,-3.836,-0.135,-4.45,-4.244,-2.985,0.88
29049144:11:799,3.961,-4.231,9.564,-2.418,1.133,1.963,-4.719,0.475,-0.727
29049144:11:799,1.715,3.09,7.574,3.39,-0.424,-3.528,3.904,4.81,-2.59
29049144:11:799,-2.51,-0.542,13.525,1.995,3.603,-1.551,-0.628,2.56,-1.1
29049144:11:799,3.01,-3.085,12.436,-4.174,4.961,-3.613,-2.92,-0.794,3.006
29049144:11:799,-2.226,-4.115,6.215,0.072,4.732,-2.936,4.805,1.634,-1.11
29049144:11:799,0.461,-1.738,7.558,-1.897,1.625,-0.394,-2.002,0.881,1.622
29049144:11:799,1.047,4.514,12.699,0.842,3.772,2.567,3.906,-3.736,3.633
29049144:11:799,3.667,-3.926,7.681,-2.434,1.059,3.315,1.25,-4.35,3.008
29049144:11:799,2.065,-3.288,9.228,-2.002,1.277,3.288,-3.375,-2.584,-2.257
29049144:11:799,0.495,2.354,9.002,0.462,2.712,-4.106,2.596,2.243,3.625
29049144:11:799,-2.714,1.156,11.019,-1.72,-0.907,0.623,2.126,4.578,-3.571
29049144:11:799,2.096,3.273,6.856,0.129,2.722,-4.078,-3.384,-4.081,2.852
29049144:11:799,-2.01,3.018,9.509,-4.494,-2.418,4.756,-3.661,-3.195,-1.028
29049144:11:799,3.593,-1.767,11.9,2.104,-3.447,-1.441,0.515,1.47,-4.963
29049144:11:799,-3.405,-3.904,14.542,3.367,2.092,-3.866,-0.772,-2.513,3.644
29049144:11:799,2.051,4.426,5.385,2.643,-4.089,-0.049,4.173,2.694,-2.17
29049144:11:799,4.786,-0.688,9.71,1.246,1.503,0.302,-1.823,4.041,0.433
29049144:11:799,4.521,-4.669,14.796,3.567,-3.668,0.194,4.438,2.586,3.537
29049144:11:799,-3.015,0.735,5.138,-1.532,-1.311,1.804,-1.781,1.016,-3.751
29049144:11:799,-1.081,3.708,8.55,-3.04,-3.713,-1.811,-2.232,-1.552,3.175
29049144:11:799,-3.09,4.03,13.784,1.016,-1.161,1.828,1.697,-2.683,-1.053
29049144:11:799,1.563,-4.168,13.178,0.641,3.723,4.539,3.567,-4.618,0.325
29049144:11:799,-4.633,0.476,10.634,-2.635,4.139,2.17,-4.703,-4.367,0.619
29049144:11:799,0.39,1.535,13.732,-3.627,-2.175,1.257,-0.694,2.586,-0.019
29049144:11:799,0.358,4.888,12.353,-4.792,-1.062,3.539,-2.428,3.283,-2.083
29049144:11:799,-3.214,4.531,9.84,2.409,1.155,-4.064,1.585,4.588,0.577
29049144:11:799,2.752,-1.97,13.415,-3.984,3.858,4.27,-0.353,2.163,4.195
29049144:11:799,4.183,1.893,6.13,-2.863,0.237,4.337,-2.481,-4.088,3.897
29049144:11:799,-0.067,2.506,6.588,-0.887,4.866,-2.655,2.3,3.98,4.42
29049144:11:799,1.031,4.114,13.141,3.362,1.813,0.955,-0.919,-1.923,2.048
29049144:11:799,2.51,2.147,13.57,1.56,4.651,0.461,-4.827,3.509,3.942
29049144:11:799,3.829,-0.078,6.479,3.047,-4.053,-1.553,2.956,4.744,3.024
29049144:11:799,-3.465,0.974,9.257,0.937,-3.283,0.433,-2.007,1.692,-1.531
29049144:11:799,-0.034,3.562,12.211,2.532,1.631,-2.133,1.404,-2.114,1.64
29049144:11:799,0.017,1.769,9.727,-3.715,4.482,2.941,4.526,4.566,2.212
29049144:11:799,-2.791,1.073,11.057,4.185,1.826,1.576,0.788,-2.549,-0.78
29049144:11:799,4.25,1.735,14.58,-3.479,3.835,-3.238,4.302,-3.241,-4.216
29049144:11:799,-1.142,-3.055,12.444,-2.06,-2.403,3.46,0.9,-1.289,-4.771
29049144:11:799,1.195,-1.264,12.337,2.97,1.096,4.871,-4.2,1.333,-2.8
29049144:11:799,-2.292,4.274,8.996,0.909,-1.267,1.543,4.85,-0.917,-2.487
29049144:11:799,1.427,-4.771,14.335,1.676,4.128,1.107,-4.733,0.692,0.274
29049144:11:799,4.432,0.4,13.783,-1.074,-4.789,4.041,3.958,2.641,0.004
29049144:11:799,-4.059,3.795,14.785,-2.335,2.16,-0.069,-1.923,3.124,3.8
29049144:11:799,0.519,-3.536,5.917,3.132,-4.378,-3.4,-3.24,-2.093,0.676
29049144:11:799,-0.769,1.888,10.302,-4.516,-0.314,2.3,-3.728,-3.763,3.109
29049144:11:799,0.241,-1.959,7.031,-3.818,0.996,2.079,-1.343,-4.82,-4.771
29049144:11:799,3.108,3.988,11.709,4.241,-0.482,3.039,-4.034,-0.683,-2.376
29049144:11:799,0.92,-4.134,14.062,3.936,1.306,-2.963,2.22,-3.454,1.306
29049144:11:799,-3.027,4.273,11.085,4.84,3.873,-2.263,1.74,-0.434,4.643
29049144:11:799,2.332,-1.818,11.311,-2.344,2.132,2.546,-0.947,-4.278,-1.952
29049144:11:799,-4.436,1.879,10.676,-0.694,-0.277,-3.923,-0.677,-4.698,1.85
29049144:11:799,3.863,-3.439,14.621,-0.532,0.522,2.917,2.201,2.649,3.244
29049144:11:799,-3.612,-3.526,9.713,-3.952,2.274,3.761,1.774,-2.793,1.356
29049144:11:799,1.768,2.527,13.26,0.043,-2.526,0.373,4.191,-4.388,0.762
29049144:11:799,-0.099,-4.681,5.452,-4.381,-2.396,-1.858,3.252,-1.266,-0.023
29049144:11:799,-4.137,-2.754,6.833,-1.779,-0.253,2.349,-3.205,0.568,2.111
29049144:11:799,1.286,4.952,10.153,2.685,0.328,-4.539,1.946,-1.04,4.964
29049144:11:799,3.744,4.685,8.227,-2.369,1.673,-3.112,-0.886,4.035,-4.121
29049144:11:799,1.098,1.437,8.441,-1.638,-1.591,0.789,4.054,2.502,0.559
29049144:11:799,-2.032,-1.93,11.466,0.993,4.214,2.126,3.401,-2.575,-3.418
29049144:11:799,-3.558,-4.665,7.156,-1.977,2.17,1.166,-2.992,2.36,0.171
29049144:11:799,-1.792,-1.974,13.827,-2.644,0.175,0.415,-3.315,1.991,-1.131
29049144:11:799,-0.089,0.934,13.958,-1.894,4.898,-4.587,-4.376,0.145,2.104
29049144:11:799,1.16,2.549,8.818,2.554,-4.036,-3.453,3.726,-1.283,1.017
29049144:11:799,-4.887,-0.392,6.454,0.794,2.602,-4.867,-3.534,-4.813,-3.95
29049144:11:799,-4.392,1.432,6.852,0.598,2.255,0.647,-2.478,-0.732,-1.571
29049144:11:799,-4.98,4.264,7.508,-2.808,0.485,-2.268,3.114,-1.167,1.001
29049144:11:799,4.437,2.825,12.35,-2.707,-1.458,-3.406,1.221,-2.717,3.118
29049144:11:799,-1.384,-0.796,12.264,3.642,-2.662,-3.331,1.407,-0.846,1.822
29049144:11:799,-3.07,1.171,8.367,4.743,2.827,0.848,1.89,4.504,-1.223
29049144:11:799,3.969,-3.266,10.79,3.151,3.839,-1.333,2.87,0.632,0.854
29049144:11:799,4.385,0.792,11.392,-0.433,0.614,-2.34,-0.733,2.557,-2.307
29049144:11:799,-2.025,3.251,10.689,-3.32,-4.355,-0.971,-2.143,-3.619,1.574
29049144:11:799,3.316,-3.448,6.969,1.847,-3.979,-1.759,3.857,-2.757,2.639
29049144:11:799,-1.236,-4.744,8.123,4.422,-3.531,3.62,-2.234,-3.623,-3.78
29049144:11:799,-4.835,3.404,7.36,4.946,3.186,-3.171,4.039,-0.139,1.039
29049144:11:799,-1.238,-4.65,11.934,3.958,0.899,0.069,-4.499,1.69,0.875
29049144:11:799,-0.263,2.686,7.107,1.136,-1.481,2.919,1.511,-1.244,1.265
29049144:11:799,-2.203,-0.916,14.074,-0.979,-1.043,-2.447,-4.043,0.042,-3.129
29049144:11:799,1.611,-2.019,11.341,2.777,-2.041,-2.344,-1.774,4.753,4.481
29049144:11:799,2.739,0.054,10.83,-2.879,1.333,-4.356,1.578,-0.019,-3.265
29049144:11:799,1.313,-3.626,14.867,0.888,0.538,3.634,-4.268,-2.353,4.985
29049144:11:799,2.748,-2.026,5.822,3.996,-0.542,3.691,0.874,-0.352,-2.27
29049144:11:799,0.667,-0.006,11.729,-1.595,-1.952,0.06,-4.594,-3.072,0.16
29049144:11:799,-3.255,4.127,8.923,0.617,4.272,-3.11,1.553,3.097,4.02
29049144:11:799,1.844,2.876,13.221,3.363,-1.75,-2.321,-2.627,3.53,-1.112
29049144:11:799,-0.783,-2.088,8.054,-2.225,-2.987,0.957,-1.743,-4.362,2.934
29049144:11:799,-2.767,1.102,14.958,1.369,-4.477,3.423,-4.569,-3.449,-2.195
29049144:11:799,4.26,4.097,5.583,2.574,-1.701,3.537,-2.004,1.376,-1.79
29049144:11:799,1.213,-3.589,13.26,2.334,-3.472,-2.058,0.851,-2.591,2.481
29049144:11:799,2.748,-4.659,10.524,3.418,1.575,-2.773,-3.596,-1.737,4.208
29049144:11:799,4.841,3.999,8.44,3.024,0.786,-2.079,2.793,-0.64,-2.381
29049144:11:799,3.259,2.584,11.321,-1.184,1.173,2.374,-3.722,0.917,-1.575
29049144:11:799,-2.391,0.676,11.004,1.339,-2.428,4.324,4.976,-2.603,-4.43
29049144:11:799,2.115,1.856,5.107,-4.471,-4.309,3.99,1.252,3.407,0.237
29049144:11:799,2.67,-1.385,14.117,2.966,-2.316,-4.715,-1.812,2.525,4.361
29049144:11:799,0.676,3.661,7.217,-4.743,3.01,0.461,-3.18,2.179,2.465
29049144:11:799,0.796,-2.444,8.834,-2.631,2.491,0.703,2.482,-4.622,-0.424
29049144:11:799,-1.18,4.355,7.096,-0.231,-2.745,2.877,-2.425,-3.702,0.836
29049144:11:799,-4.51,3.667,6.463,3.314,2.022,1.64,4.76,-3.421,-3.169
29049144:11:799,-3.984,-2.503,6.83,0.859,0.856,-4.585,-1.63,0.21,-0.929
29049144:11:799,-0.554,-4.374,12.208,4.135,3.397,4.182,-0.75,-3.724,2.744
29049144:11:799,2.988,2.362,6.683,-3.474,-0.975,2.564,4.205,-1.84,-3.569
29049144:11:799,-2.736,-3.087,13.294,3.76,1.52,-4.937,4.138,3.28,-0.659
29049144:11:799,-3.564,-4.228,10.456,-4.159,-3.106,1.959,2.887,3.354,4.422
29049144:11:799,-3.927,-1.529,10.595,-0.475,1.552,-4.196,1.303,-0.356,4.922
29049144:11:799,1.678,4.307,11.659,4.758,-3.644,3.992,-3.929,0.534,-3.392
29049144:11:799,-1.316,-1.291,7.852,-2.34,-1.755,2.744,0.705,3.369,-1.734
29049144:11:799,1.781,3.313,10.968,1.928,0.675,-0.36,0.525,-4.883,1.196
29049144:11:799,3.11,0.268,6.305,2.868,2.205,-2.353,1.375,1.764,4.022
29049144:11:799,-0.578,4.45,9.6,2.403,-4.956,4.231,-0.576,2.683,2.7
29049144:11:799,0.84,-4.354,13.666,2.769,-2.519,1.285,-0.968,2.534,0.299
29049144:11:799,4.303,4.398,12.083,3.561,-4.347,2.633,-1.371,4.92,1.777
29049144:11:799,-2.892,-3.491,13.391,-2.923,-3.472,2.076,1.143,-3.52,2.631
29049144:11:799,0.559,0.04,9.162,2.065,-4.616,-0.981,0.723,0.934,-0.724
29049144:11:799,-1.858,-1.512,11.001,2.429,3.447,2.942,-0.472,0.214,2.095
29049144:11:799,0.745,-2.721,5.948,-1.427,-4.544,2.702,1.742,4.415,1.206
29049144:11:799,0.794,0.149,6.144,-4.107,0.268,-3.538,0.994,-3.129,1.136
29049144:11:799,-0.006,-0.712,14.797,1.847,4.825,1.02,0.117,-4.086,-1.722
29049144:11:799,-3.65,-3.572,6.427,2.53,-0.14,-1.994,-3.741,2.633,-1.394
29049144:11:799,0.023,3.556,13.171,0.457,2.526,1.748,-1.667,-1.614,1.309
29049144:11:799,-1.31,-2.926,8.96,-0.727,-4.039,1.129,-2.219,-4.014,4.166
29049144:11:799,-0.267,-4.317,12.303,4.655,-0.094,-0.548,-3.912,-3.175,4.169
29049144:11:799,-2.769,2.317,9.791,1.309,3.762,-4.024,3.922,2.359,-3.884
29049144:11:800,4.85,-3.827,11.647,-0.462,4.734,-1.778,-2.005,-2.186,-1.167
29049144:11:800,4.244,2.596,13.371,-2.022,0.054,-2.127,1.65,-4.629,-2.404
29049144:11:800,-1.569,-0.81,8.093,-3.023,-1.956,0.783,1.663,-0.551,3.243
29049144:11:800,-2.533,2.047,10.279,0.156,2.693,1.201,-2.978,0.158,1.18
29049144:11:800,-1.044,-3.85,8.927,4.098,-2.141,-0.532,-1.445,-3.937,0.117
29049144:11:800,-4.532,2.776,5.596,4.876,4.02,0.103,-4.256,0.428,-4.114
29049144:11:800,-3.312,-0.21,9.335,-4.871,-2.959,0.675,0.672,3.875,-2.633
29049144:11:800,0.794,0.752,11.473,-3.144,1.072,0.308,1.431,-3.731,-4.738
29049144:11:800,0.44,-3.214,5.177,1.864,-3.543,1.563,-3.412,-1.527,-2.077
29049144:11:800,-1.316,2.457,12.79,-2.727,0.448,3.823,-4.615,-2.905,0.594
29049144:11:800,0.948,-3.146,12.215,4.744,0.632,-1.569,-4.283,1.462,-4.535
29049144:11:800,-1.491,-1.541,12.31,-1.272,-0.46,3.194,-0.874,1.901,4.456
29049144:11:800,-3.542,0.657,6.831,0.783,2.102,2.552,0.953,1.74,1.312
29049144:11:800,-3.661,0.555,11.318,-4.15,-3.578,-4.883,-4.243,3.667,-1.875
29049144:11:800,-3.382,-0.271,13.931,0.95,3.765,0.062,2.315,-1.543,-0.922
29049144:11:800,0.775,3.81,9.547,2.173,3.562,-3.198,4.357,4.087,-0.117
29049144:11:800,0.905,2.793,10.332,-0.038,1.733,2.996,-1.209,-4.466,4.942
29049144:11:800,4.148,-3.461,11.012,-0.487,3.167,-0.707,4.152,-0.09,-0.53
29049144:11:800,-1.952,-1.654,13.743,-3.008,3.671,-4.974,-4.638,1.55,3.364
29049144:11:800,-2.421,-1.897,11.686,0.325,-1.08,4.721,-0.515,3.14,-1.668
29049144:11:800,-1.907,-3.772,13.262,-1.699,-1.109,-2.777,-3.747,-4.061,-0.962
29049144:11:800,-4.07,0.83,8.347,-2.3,-3.746,1.395,1.054,-3.194,-0.033
29049144:11:800,3.713,-0.739,10.677,-4.069,1.716,-1.787,-0.569,-4.652,1.451
29049144:11:800,-1.38,3.789,12.524,4.285,1.857,-4.865,-4.608,-1.667,1.167
29049144:11:800,-0.493,-0.663,9.139,-2.628,1.295,0.231,-4.571,2.435,-0.41
29049144:11:800,-0.676,1.862,13.133,-2.81,3.255,-0.372,1.008,-1.106,-0.148
29049144:11:800,-0.216,-2.894,6.648,-3.233,0.115,0.39,0.859,-2.213,-4.024
29049144:11:800,-3.883,3.418,7.098,-4.351,4.631,-1.616,-0.681,0.241,-3.006
29049144:11:800,2.761,-2.106,12.409,3.677,-3.813,-1.208,3.296,-2.259,-4.435
29049144:11:800,-1.301,3.864,13.135,-2.961,-2.797,-1.268,-0.902,3.31,0.035
29049144:11:800,0.453,2.856,11.439,-0.971,0.982,-2.803,-4.754,-1.806,-4.167
29049144:11:800,2.686,-1.236,14.167,-1.814,-3.588,-2.401,4.868,1.33,3.231
29049144:11:800,4.584,0.661,6.325,-3.542,-2.816,0.776,-0.195,-4.673,2.119
29049144:11:800,3.104,-3.974,11.462,-1.899,1.249,-0.35,1.339,2.974,-1.828
29049144:11:800,-3.434,2.435,10.357,-4.0,-1.131,-2.921,1.661,-1.696,1.126
29049144:11:800,4.351,-3.698,6.799,0.758,-1.855,-1.006,-0.554,2.647,-4.019
29049144:11:800,4.73,-2.154,5.249,1.157,-1.74,-3.841,-4.098,0.022,3.326
29049144:11:800,2.204,1.061,13.416,4.637,-4.402,-1.851,3.313,1.816,-0.418
29049144:11:800,4.123,2.523,13.554,4.64,1.617,-0.77,-0.066,1.979,-2.811
29049144:11:800,3.838,4.98,10.609,-2.474,-0.876,-2.808,3.785,-0.521,-4.3
29049144:11:800,2.175,-4.404,14.289,-1.194,3.436,-0.139,3.069,3.357,0.056
29049144:11:800,2.672,-0.122,12.183,1.653,3.702,1.212,-1.795,4.203,0.755
29049144:11:800,-2.386,-3.075,12.02,-1.689,3.975,-0.504,1.592,1.804,-3.186
29049144:11:800,2.771,-4.791,12.76,3.508,-3.341,-0.592,4.516,3.066,-3.43
29049144:11:800,-2.945,3.789,5.807,2.347,2.845,-3.121,4.644,3.198,-1.603
29049144:11:800,0.401,0.057,10.796,-4.041,-2.251,1.32,-2.694,-2.911,3.217
29049144:11:800,-3.807,-2.085,6.224,-0.537,-2.993,-4.266,-2.932,1.284,-3.473
29049144:11:800,-4.107,4.643,14.279,4.663,2.584,-3.815,-0.415,-1.322,-1.709
29049144:11:800,-4.264,4.175,9.295,0.421,-3.679,4.195,2.082,3.353,-4.602
29049144:11:800,4.366,-3.246,13.726,3.139,0.021,-0.217,4.451,-1.923,-1.116
29049144:11:800,-1.624,3.352,8.68,1.676,2.811,2.48,3.642,2.365,4.664
29049144:11:800,-4.79,1.453,13.247,-3.226,0.229,4.485,1.476,-1.72,2.401
29049144:11:800,-0.959,-0.327,5.154,-2.953,-2.517,0.732,1.099,-0.276,-1.86
29049144:11:800,-1.374,-3.395,14.795,0.506,-3.142,0.051,0.093,-2.373,-3.647
29049144:11:800,4.822,-0.965,14.191,-2.319,3.45,-2.974,2.56,-0.728,-3.136
29049144:11:800,2.942,3.259,6.39,1.448,0.443,2.177,-2.543,2.811,-2.971
29049144:11:800,4.348,1.967,5.405,4.436,1.4,4.782,3.904,-4.559,2.267
29049144:11:800,-0.98,4.56,10.187,3.207,-4.748,1.174,0.399,4.134,3.357
29049144:11:800,-4.858,-0.077,9.607,-4.204,-2.589,-3.136,0.731,-4.476,3.986
29049144:11:800,0.803,2.462,11.213,2.037,-2.647,-1.206,-2.175,2.507,-4.948
29049144:11:800,-4.422,-2.197,10.18,0.402,-1.809,-1.173,-0.763,-4.15,-4.362
29049144:11:800,-1.772,-3.172,10.594,4.264,2.548,-0.078,-1.827,-1.927,-2.909
29049144:11:800,0.593,0.955,6.302,-2.936,-0.972,-2.015,4.36,-0.308,-2.35
29049144:11:800,3.836,1.895,14.655,3.98,-1.212,4.869,1.001,2.503,3.651
29049144:11:800,-3.791,3.88,6.986,-4.388,-1.483,0.42,-3.576,-3.155,-3.754
29049144:11:800,2.264,-3.709,11.751,1.541,-1.652,-4.153,3.271,-1.62,-3.128
29049144:11:800,4.383,4.405,13.714,-1.853,-2.842,3.469,2.409,-2.708,-1.04
29049144:11:800,4.951,1.939,6.322,3.243,4.891,-0.667,3.428,0.609,3.99
29049144:11:800,4.217,4.304,8.486,3.214,-4.185,-3.81,-2.961,-0.42,-1.703
29049144:11:800,-2.186,-1.327,13.445,1.1,-4.171,-2.234,2.95,-1.892,1.595
29049144:11:800,-2.05,3.316,12.391,4.428,0.078,4.177,4.898,-0.961,-4.9
29049144:11:800,-0.239,-2.054,12.36,-0.87,1.659,2.402,-4.438,2.231,-0.93
29049144:11:800,4.948,1.463,11.185,-3.971,-2.471,-4.815,-1.436,4.631,2.123
29049144:11:800,0.829,-0.181,5.22,-4.9,4.032,-0.54,-0.455,-0.226,3.248
29049144:11:800,0.873,3.48,8.828,-2.568,1.862,-0.506,-4.909,2.579,0.327
29049144:11:800,4.652,-4.664,7.859,4.358,0.354,-2.37,2.455,-3.903,0.923
29049144:11:800,-1.703,0.44,14.237,4.151,3.113,4.305,2.778,-2.787,-3.116
29049144:11:800,-3.996,-0.37,9.987,-0.183,-4.664,0.455,-4.726,-2.361,-3.395
29049144:11:800,2.86,4.524,9.345,1.563,-4.197,3.768,3.708,0.267,-4.492
29049144:11:800,-0.131,2.889,6.147,-4.865,0.723,0.634,-3.461,4.516,4.775
29049144:11:800,-0.3,3.24,5.006,-3.659,-2.507,3.861,-2.723,3.208,2.564
29049144:11:800,-0.25,-1.941,8.044,4.917,-4.491,2.433,-3.05,0.732,4.142
29049144:11:800,3.18,3.44,14.869,3.377,-3.667,1.008,-0.016,4.2,3.514
29049144:11:800,-3.414,3.506,13.043,3.691,-4.153,3.016,-0.155,-4.065,-4.73
29049144:11:800,0.805,2.277,9.814,-3.094,1.908,-1.893,-2.12,1.053,1.002
29049144:11:800,2.364,-3.223,6.135,4.777,-2.858,-0.743,0.709,3.33,-1.08
29049144:11:800,0.335,-3.254,7.788,-2.958,-1.825,2.884,2.208,3.623,-1.782
29049144:11:800,0.56,3.817,6.734,2.875,0.921,-4.98,-4.318,-2.272,-4.548
29049144:11:800,-3.222,3.792,7.223,0.836,4.677,-2.361,-0.59,2.605,-4.604
29049144:11:800,0.318,-0.792,14.082,-3.915,-0.159,-2.931,-4.325,1.909,-3.04
29049144:11:800,1.611,-0.88,12.716,4.469,-2.687,3.95,-3.509,-3.168,0.146
29049144:11:800,-1.183,-0.556,5.63,-2.302,0.845,-2.56,4.508,-4.718,-4.595
29049144:11:800,-3.999,-3.217,14.425,-3.477,-2.001,1.651,2.108,-0.8,1.42
29049144:11:800,-1.595,4.373,12.646,3.036,-4.841,-1.051,-4.975,2.978,-1.003
29049144:11:800,1.289,-4.294,6.844,0.085,-1.083,-2.28,1.242,-4.69,3.684
29049144:11:800,3.41,4.211,9.911,-3.677,1.143,2.412,-2.098,-1.268,3.448
29049144:11:800,1.24,-4.28,8.122,0.552,2.488,-0.046,4.248,1.005,2.944
29049144:11:800,-0.641,-3.453,8.236,2.542,-0.131,2.463,1.4,-4.246,-2.561
29049144:11:800,3.278,2.452,8.792,3.355,1.741,-0.555,-2.377,-0.298,0.356
29049144:11:800,3.228,-0.919,7.477,3.283,-0.857,2.825,-3.56,0.023,3.407
29049144:11:800,-4.871,4.673,10.568,2.911,2.565,4.174,-0.642,0.662,-2.615
29049144:11:800,-4.515,-1.63,11.385,-0.268,3.856,-3.775,-3.787,-4.029,4.775
29049144:11:800,0.101,2.564,7.341,-4.548,2.062,-0.996,0.762,1.128,-1.052
29049144:11:800,4.353,-0.594,14.322,-1.468,-1.645,0.049,0.234,-2.947,-2.407
29049144:11:800,-3.359,3.117,8.469,-1.458,1.14,2.781,2.84,-0.197,-3.764
29049144:11:800,-3.9,-3.612,6.144,-4.072,0.23,-0.403,3.655,0.997,-4.737
29049144:11:800,1.435,2.895,14.836,-1.576,1.583,2.178,3.047,4.2,1.049
29049144:11:800,1.165,-2.516,12.223,-0.488,4.249,3.755,-4.548,4.94,-0.992
29049144:11:800,-1.58,-4.462,6.294,2.793,4.529,2.605,-2.016,0.037,-3.972
29049144:11:800,4.825,1.85,11.567,-3.861,3.687,-4.893,2.802,-3.676,0.614
29049144:11:800,-2.338,-4.432,10.18,-2.873,1.058,-3.706,-0.673,2.89,0.694
29049144:11:800,-2.101,-3.207,5.482,-2.503,-3.8,3.161,2.301,-3.102,2.28
29049144:11:800,-0.187,-0.091,10.139,0.298,-0.712,-1.0,-4.498,-1.259,-4.498
29049144:11:800,1.071,2.136,13.446,0.205,0.105,-3.939,-4.393,-3.432,3.693
29049144:11:800,3.176,-0.208,7.901,4.375,-3.041,4.973,0.829,1.52,0.018
29049144:11:800,1.054,4.62,10.718,-3.119,3.699,0.19,2.423,1.607,4.957
29049144:11:800,0.855,-3.152,8.643,1.517,-4.09,4.729,-2.662,-4.827,-4.294
29049144:11:800,4.952,2.299,6.726,3.025,1.163,0.911,4.33,4.396,-2.73
29049144:11:800,-2.063,-0.509,5.726,1.7,-4.555,-4.02,-2.681,2.263,-1.887
29049144:11:800,2.672,1.795,7.879,3.939,4.716,-2.839,2.018,4.814,0.072
29049144:11:800,3.091,0.34,5.866,4.381,-3.504,-3.312,-3.236,4.777,0.85
29049144:11:800,-1.987,2.346,14.666,3.838,2.674,-1.184,2.558,2.168,-1.985
29049144:11:800,-0.096,-0.507,13.884,4.639,-2.986,0.916,4.116,-1.235,-2.678
29049144:11:800,-0.874,4.036,11.521,2.794,-1.447,-0.876,3.012,3.997,3.578
29049144:11:800,3.362,-4.323,5.239,-3.4,-0.694,3.659,-4.011,2.014,-0.69
29049144:11:800,3.062,-4.45,8.536,3.146,0.357,-0.196,-2.639,-3.052,0.653
29049144:11:800,1.401,-1.423,12.619,1.632,-1.87,-2.312,4.078,-0.231,2.346
29049144:11:800,-0.51,-1.96,7.92,2.995,-0.242,-2.977,0.765,-1.494,2.899
29049144:11:801,2.381,-1.471,9.537,0.519,-2.285,4.695,1.609,-4.606,-0.72
29049144:11:801,2.314,1.475,10.82,0.354,-3.099,3.182,-1.675,0.619,-0.883
29049144:11:801,-2.086,2.158,10.117,-4.638,0.435,1.342,-0.585,-4.921,-2.139
29049144:11:801,-3.478,0.778,11.831,-0.933,-3.706,1.287,-3.089,1.243,-2.506
29049144:11:801,-4.819,4.089,7.844,-2.655,-4.736,3.708,0.011,-3.997,2.062
29049144:11:801,3.804,-4.524,6.161,-3.131,-1.2,-4.05,0.664,-1.244,0.94
29049144:11:801,-3.479,-3.567,7.17,-0.042,1.802,1.25,2.533,4.241,1.789
29049144:11:801,0.095,1.976,7.152,4.684,0.784,-4.136,2.99,1.074,4.725
29049144:11:801,-2.848,-1.052,7.636,0.24,-0.515,0.027,0.75,0.579,4.5
29049144:11:801,-4.767,0.927,6.783,0.196,2.048,-3.856,2.778,-0.458,-3.091
29049144:11:801,2.215,-1.61,9.142,-4.675,4.429,4.696,0.52,-1.848,3.226
29049144:11:801,3.206,-4.916,14.334,-0.343,4.503,4.16,4.033,-3.642,-2.372
29049144:11:801,-3.88,-3.954,12.773,-0.332,2.631,-3.672,4.175,-0.956,2.602
29049144:11:801,-0.847,-4.706,12.514,3.048,1.085,2.843,-4.392,-1.146,0.171
29049144:11:801,-0.789,-4.267,13.91,-3.25,1.537,3.401,1.939,-2.023,3.304
29049144:11:801,-3.412,-0.255,9.012,-1.827,1.437,0.181,-3.743,1.129,1.168
29049144:11:801,-0.835,4.061,5.634,1.403,-3.558,2.617,-2.498,2.332,-4.245
29049144:11:801,-2.06,4.114,7.838,-3.67,-2.148,1.042,2.18,-0.969,-4.263
29049144:11:801,3.399,3.32,6.726,1.561,4.262,-0.02,2.537,3.375,-2.045
29049144:11:801,1.064,-4.065,7.097,-3.291,1.042,-0.916,4.369,4.111,2.652
29049144:11:801,-1.384,-1.546,11.607,-3.423,-4.433,-3.739,-3.981,1.876,2.873
29049144:11:801,3.869,-2.935,5.749,-3.13,-4.969,-3.241,4.54,-1.185,1.621
29049144:11:801,1.652,1.314,6.876,-2.008,-2.596,2.921,-2.891,-2.423,0.162
29049144:11:801,4.825,-1.868,7.912,-4.485,2.492,-4.346,-4.46,-0.209,-0.608
29049144:11:801,3.082,0.79,14.392,1.446,-4.91,-1.242,2.438,0.04,-4.547
29049144:11:801,4.998,2.047,10.172,0.352,3.698,-0.388,0.792,-3.66,-2.714
29049144:11:801,1.526,-0.972,13.57,2.341,3.935,4.448,2.326,-4.659,1.729
29049144:11:801,-3.336,-0.23,14.338,4.552,-3.235,-3.48,-2.104,3.294,-2.857
29049144:11:801,-3.554,-3.839,11.71,4.407,-1.757,2.58,3.771,-3.788,-3.815
29049144:11:801,3.296,-0.025,11.782,-1.817,-4.62,-1.38,-2.791,0.654,3.885
29049144:11:801,1.588,3.913,13.646,-0.54,-0.012,3.572,1.307,2.099,-1.564
29049144:11:801,2.359,-3.391,14.923,3.948,-1.929,2.706,3.602,-1.904,-2.604
29049144:11:801,1.19,-3.968,12.796,-1.49,2.689,4.391,0.286,-1.555,-4.086
29049144:11:801,-3.273,1.911,6.202,-1.868,-2.712,3.354,-2.078,1.694,-3.631
29049144:11:801,3.389,-4.081,14.079,4.839,-4.908,1.777,-0.513,-0.885,-1.77
29049144:11:801,0.002,-3.689,13.279,4.272,0.646,4.074,2.995,1.742,3.59
29049144:11:801,-4.49,-4.351,7.508,0.461,2.163,-2.136,3.651,-4.1,3.14
29049144:11:801,3.259,-3.123,11.924,4.829,4.014,-4.376,-1.354,1.636,4.518
29049144:11:801,4.736,-2.742,10.72,2.473,4.342,4.642,-3.81,-4.315,-3.033
29049144:11:801,-3.928,-2.243,7.016,0.204,-0.378,-2.65,-3.414,-1.168,-1.926
29049144:11:801,-2.069,1.963,12.792,1.208,-1.965,2.065,2.834,0.32,4.314
29049144:11:801,1.473,-3.082,11.363,-1.992,1.253,4.528,-2.303,3.091,-1.246
29049144:11:801,-3.601,0.25,11.868,-1.197,-4.202,1.09,4.984,1.848,2.707
29049144:11:801,-1.081,-0.56,12.115,-0.359,-2.425,-3.702,1.193,-2.936,-4.861
29049144:11:801,-3.504,4.9,10.164,2.385,3.104,1.937,3.374,-2.365,-0.444
29049144:11:801,-1.706,1.028,5.528,-1.236,1.149,1.192,4.981,4.897,0.355
29049144:11:801,-0.576,-3.068,8.428,2.077,4.106,4.51,-0.365,1.994,4.363
29049144:11:801,-2.854,-3.974,12.007,-4.719,4.152,-3.504,2.493,1.585,-3.427
29049144:11:801,0.31,-3.675,12.877,2.098,-1.567,-4.869,1.343,0.541,0.428
29049144:11:801,1.885,1.226,8.653,3.008,4.855,4.765,1.131,1.1,3.823
29049144:11:801,1.673,0.598,11.983,-1.907,3.417,-4.156,-3.865,-0.694,2.915
29049144:11:801,-4.497,2.143,7.092,-2.568,1.702,-2.865,-3.423,-1.357,-2.808
29049144:11:801,0.734,-4.438,8.03,-0.686,4.025,3.196,2.127,-0.07,4.251
29049144:11:801,1.118,-4.651,10.868,-1.489,-4.167,4.662,-1.622,-2.915,1.383
29049144:11:801,-2.107,-4.635,10.802,-2.084,-3.443,0.663,2.851,4.061,4.357
29049144:11:801,-0.486,0.426,14.584,-4.404,-2.244,2.766,2.798,0.805,3.556
29049144:11:801,3.514,-4.708,13.982,1.373,-1.46,-3.577,4.731,-0.011,4.879
29049144:11:801,-4.984,2.539,11.96,0.355,0.082,3.188,-1.672,-3.635,-0.487
29049144:11:801,-2.841,-3.991,11.469,-0.949,-4.838,-2.816,-4.863,-4.259,-3.18
29049144:11:801,-4.383,-1.288,9.401,-0.658,4.475,-3.866,-4.051,-2.712,-3.01
29049144:11:801,2.204,1.976,9.7,4.422,1.867,0.272,1.144,4.345,-3.656
29049144:11:801,0.786,3.668,9.177,4.961,-3.89,1.466,2.821,-4.423,-1.026
29049144:11:801,4.762,-0.759,13.047,-3.359,3.113,-0.379,-3.227,1.027,-4.571
29049144:11:801,-2.418,-4.121,6.724,4.639,0.595,-4.059,4.077,-1.826,-0.204
29049144:11:801,2.523,-1.044,5.688,-2.451,4.401,0.306,-3.515,3.548,0.056
29049144:11:801,-3.917,3.781,12.705,-1.909,4.037,3.278,-3.747,2.868,-2.438
29049144:11:801,1.277,3.094,7.568,4.514,-4.822,1.731,-0.281,2.404,-3.64
29049144:11:801,0.7,-2.399,10.521,1.886,-2.345,3.863,-3.85,3.668,3.726
29049144:11:801,-4.683,-4.526,12.794,3.321,-3.308,-0.654,-2.261,-2.144,-1.13
29049144:11:801,-2.119,-0.888,13.357,1.919,-0.541,-4.662,-0.115,-4.563,-3.085
29049144:11:801,-0.209,-2.833,9.344,1.658,1.598,2.738,3.321,0.297,1.111
29049144:11:801,2.722,-3.363,9.284,-0.295,-1.414,4.104,-4.795,-1.228,2.587
29049144:11:801,-0.467,1.306,10.606,-4.287,3.211,0.343,1.891,2.405,3.541
29049144:11:801,3.965,3.7,7.328,3.304,3.683,1.545,3.042,4.738,2.583
29049144:11:801,2.106,-2.567,9.457,2.903,4.255,-4.581,4.799,2.212,-2.085
29049144:11:801,-2.072,-2.869,11.641,1.952,0.033,-1.674,-2.163,-0.882,-2.68
29049144:11:801,-0.982,1.798,13.938,-0.02,-3.019,3.006,0.918,-1.314,-4.112
29049144:11:801,2.462,2.292,13.584,0.965,-0.7,-4.869,0.052,0.474,2.514
29049144:11:801,2.962,2.508,8.558,2.766,-1.295,-0.249,-2.731,-4.412,4.782
29049144:11:801,-2.405,-1.462,12.786,-4.89,2.762,-3.339,4.866,4.049,4.877
29049144:11:801,-1.375,1.582,11.334,-2.798,2.289,-3.647,-1.633,-4.214,-4.063
29049144:11:801,-4.392,-1.584,8.486,-1.425,1.164,1.11,-2.946,3.846,4.624
29049144:11:801,2.806,-3.251,9.714,2.636,1.504,-2.928,-3.023,4.371,-1.977
29049144:11:801,0.773,-3.606,12.728,-0.468,0.801,2.505,-2.606,2.332,-2.041
29049144:11:801,-4.865,-3.636,7.551,-1.545,4.978,2.247,-4.044,2.113,-4.463
29049144:11:801,2.038,1.597,11.722,-1.02,4.374,3.17,-0.012,3.683,-4.175
29049144:11:801,-2.768,-1.048,7.015,-4.044,0.596,1.04,-4.953,0.928,-3.226
29049144:11:801,-2.744,2.0,13.472,3.131,-0.082,-4.385,-0.339,-3.25,3.348
29049144:11:801,-1.183,-0.781,9.565,-4.096,-3.46,-4.875,0.905,4.064,2.141
29049144:11:801,3.179,-3.531,10.845,-2.937,1.914,-2.954,1.014,-0.88,0.129
29049144:11:801,0.408,-3.151,14.269,1.941,-4.525,2.096,-2.218,-2.873,-4.42
29049144:11:801,3.124,-0.153,12.676,-1.037,-1.437,-0.864,-4.032,-4.374,1.621
29049144:11:801,-0.878,-4.15,10.554,-4.36,1.791,1.373,-4.377,3.176,0.467
29049144:11:801,-4.774,-1.825,7.038,3.635,4.357,-4.446,2.761,-1.811,3.225
29049144:11:801,-2.445,-2.728,12.1,2.436,1.425,1.113,1.639,-2.605,4.754
29049144:11:801,-3.738,-1.119,10.093,-1.885,-1.882,4.282,0.055,-0.728,1.745
29049144:11:801,-0.878,-3.131,12.782,2.789,-4.071,4.663,-3.373,4.647,0.163
29049144:11:801,-3.504,-4.692,10.499,1.681,-0.259,2.185,-1.095,3.615,1.695
29049144:11:801,-0.518,-4.107,11.028,-2.379,-1.981,1.187,3.276,1.35,-2.903
29049144:11:801,-1.006,-0.825,13.979,0.468,-0.969,2.613,0.256,-0.579,-2.409
29049144:11:801,-0.533,3.075,11.828,2.116,0.669,0.614,-2.892,-4.44,-4.204
29049144:11:801,-3.416,-0.89,9.53,-0.967,3.875,3.995,-3.412,-2.151,0.307
29049144:11:801,3.888,-1.164,10.703,-0.035,4.254,4.085,0.176,0.987,-3.358
29049144:11:801,-4.019,-0.423,13.46,-3.426,0.877,-3.388,-2.289,4.227,-3.315
29049144:11:801,3.361,1.602,9.654,4.65,-4.67,-3.231,3.901,4.149,-3.723
29049144:11:801,0.762,0.661,6.919,3.726,-3.262,0.515,-2.224,-2.799,-3.798
29049144:11:801,-3.54,2.616,12.676,-0.899,-1.542,-1.19,-4.39,3.566,-0.32
29049144:11:801,-4.552,-2.929,6.069,3.786,-1.513,3.486,-3.245,-1.582,-3.493
29049144:11:801,-4.899,-0.178,14.386,-2.6,3.538,-4.134,0.48,1.115,1.815
29049144:11:801,-1.057,2.2,10.621,-2.974,-2.351,2.314,-4.643,-3.131,2.831
29049144:11:801,-0.977,2.374,7.979,0.497,2.595,3.75,-2.148,-1.961,2.525
29049144:11:801,-4.771,-4.739,11.571,4.376,-0.325,-0.592,1.646,2.794,4.277
29049144:11:801,1.667,3.562,7.576,-4.455,0.011,-4.438,0.199,2.96,-3.487
29049144:11:801,-1.408,1.435,12.125,2.167,3.462,-0.622,-1.238,-2.788,2.539
29049144:11:801,-1.612,1.58,10.811,0.559,2.171,-3.625,-0.525,2.014,-1.381
29049144:11:801,-3.792,-0.294,11.601,2.739,-3.852,-3.302,0.074,-3.787,-3.591
29049144:11:801,-4.532,-0.392,9.802,4.465,-2.492,-2.867,3.565,-0.752,-4.199
29049144:11:801,-3.643,4.51,9.531,-2.618,-3.183,3.268,0.394,0.286,1.943
29049144:11:801,-2.13,-3.835,13.003,-3.991,2.947,2.029,1.727,-1.785,0.127
29049144:11:801,-0.166,2.453,10.248,2.625,1.704,2.589,-2.286,-0.637,-3.425
29049144:11:801,1.099,1.3,11.095,-2.967,-2.547,2.093,1.716,4.776,-3.433
29049144:11:801,3.762,3.528,12.901,-3.46,1.725,-3.599,1.38,-1.937,4.421
29049144:11:801,2.619,-0.765,10.734,-3.553,-3.354,-2.035,-2.904,1.7,-0.764
29049144:11:801,-1.766,4.984,12.408,-2.828,-3.456,-1.608,-3.282,2.181,0.524
29049144:11:801,-3.669,-1.717,7.888,2.305,4.334,1.432,-3.379,1.845,0.946
29049144:11:801,-1.199,-3.008,9.273,-0.506,1.156,-2.074,1.412,-2.034,1.67
29049144:11:801,0.263,-4.884,6.026,-0.876,0.256,-2.651,3.112,3.466,4.442
29049144:11:801,4.415,1.747,7.858,-0.799,0.722,-3.029,3.443,-3.625,3.832
29049144:11:802,-2.417,4.789,7.531,2.225,-4.709,3.627,3.496,-1.961,2.741
29049144:11:802,2.044,-2.879,7.92,0.631,2.656,-3.828,-0.044,1.574,-1.303
29049144:11:802,1.724,-1.69,9.185,4.085,-4.049,2.732,-2.825,-0.885,4.919
29049144:11:802,-0.118,-1.103,8.25,-0.626,2.313,1.889,-3.6,-2.798,-1.976
29049144:11:802,0.563,-1.405,5.748,0.598,0.591,-4.093,4.357,3.745,-0.777
29049144:11:802,0.688,-3.017,9.956,0.437,-0.742,-3.749,2.837,-3.626,-2.804
29049144:11:802,3.488,-4.179,12.451,2.178,-2.253,1.1,-4.938,-4.995,-0.915
29049144:11:802,1.155,4.886,8.415,-3.634,0.334,-3.904,-2.404,2.131,-1.228
29049144:11:802,-0.394,3.052,8.222,-0.501,-0.493,4.083,-2.229,-2.662,-0.987
29049144:11:802,-2.096,-4.444,11.421,-3.599,1.204,1.411,0.352,2.759,-3.459
29049144:11:802,4.284,4.126,5.35,-3.425,-4.799,4.424,-2.07,-0.307,3.601
29049144:11:802,-4.241,-4.511,8.123,2.277,4.259,0.518,-2.908,-4.958,3.279
29049144:11:802,2.824,4.478,9.471,2.237,3.507,4.528,0.815,2.477,1.248
29049144:11:802,2.841,2.673,12.503,-2.549,-0.469,-4.282,3.027,4.028,-4.039
29049144:11:802,1.311,1.698,14.837,-0.528,-3.918,0.326,-0.752,-1.303,0.615
29049144:11:802,1.641,3.357,13.276,-4.038,1.751,1.067,2.068,3.008,-3.866
29049144:11:802,-2.207,3.365,11.423,-1.499,-3.776,-3.568,-0.306,0.059,3.754
29049144:11:802,-2.041,-4.152,13.597,-1.902,-3.642,-0.586,4.556,-0.852,3.27
29049144:11:802,0.051,-1.467,7.439,4.442,-2.974,-3.84,0.065,-0.717,3.807
29049144:11:802,-1.894,-3.696,13.989,0.926,4.755,-2.988,2.664,4.611,1.052
29049144:11:802,-4.274,4.59,7.8,1.736,1.589,0.252,1.358,0.496,-2.577
29049144:11:802,-3.199,4.479,7.32,2.198,0.564,4.419,3.488,4.777,2.01
29049144:11:802,0.966,-1.591,13.316,2.762,-4.128,-4.508,-4.454,1.094,-4.161
29049144:11:802,3.41,-2.739,6.794,2.849,3.985,-4.674,-3.299,-1.49,-2.85
29049144:11:802,4.185,-4.043,5.162,-3.387,1.24,-1.194,0.921,4.037,-0.279
29049144:11:802,-2.8,1.203,10.686,-0.852,-0.798,-1.049,-0.38,3.474,-0.881
29049144:11:802,-4.11,-1.475,9.059,-0.12,-0.01,-1.288,4.848,0.085,2.017
29049144:11:802,0.529,-2.842,8.77,1.689,-1.727,-1.777,3.48,-2.551,-2.375
29049144:11:802,-3.219,-4.194,8.172,4.132,3.605,-2.624,-4.83,0.416,-2.991
29049144:11:802,-1.275,-4.83,9.39,-3.006,1.042,4.13,-3.301,-2.296,2.268
29049144:11:802,1.321,1.003,13.508,3.847,0.833,2.357,-1.246,1.091,4.767
29049144:11:802,3.555,-1.655,7.944,-3.899,2.337,-1.537,-4.658,0.905,2.439
29049144:11:802,1.942,2.037,8.22,-4.952,-2.294,-2.075,3.388,-3.642,-2.286
29049144:11:802,3.713,-2.631,12.718,2.65,-0.938,-3.952,-4.166,-3.06,3.744
29049144:11:802,2.431,-4.022,5.468,-4.178,-1.368,2.988,-3.937,2.629,1.016
29049144:11:802,0.857,-0.302,9.211,-1.404,3.806,4.17,3.211,1.941,-4.427
29049144:11:802,-2.435,-4.369,10.203,-3.47,2.036,-3.731,3.712,-1.744,-3.564
29049144:11:802,3.54,-3.453,8.539,-1.55,1.706,1.322,4.845,2.714,0.545
29049144:11:802,-1.606,1.63,14.79,-0.022,3.546,0.028,-3.375,0.592,-4.435
29049144:11:802,-1.985,0.964,9.33,4.775,1.953,-1.076,1.18,4.187,-0.702
29049144:11:802,-2.363,4.235,8.253,3.549,-2.026,2.632,-4.549,3.321,-3.605
29049144:11:802,0.167,-1.961,7.368,1.111,-0.169,-0.863,-4.375,4.916,-4.886
29049144:11:802,3.642,4.952,6.295,0.394,-4.643,3.428,-0.518,4.381,-1.725
29049144:11:802,4.796,-4.128,12.849,0.63,0.068,-2.31,0.812,3.437,0.545
29049144:11:802,-0.169,-0.895,7.171,-0.984,2.633,-4.168,-3.989,4.013,2.611
29049144:11:802,0.102,0.753,12.079,-2.497,-0.228,-2.487,2.344,-0.231,-0.456
29049144:11:802,4.57,0.656,8.651,-3.714,-0.985,3.264,0.832,-4.907,-3.172
29049144:11:802,3.785,4.332,10.347,1.505,2.278,-0.159,4.371,-0.008,4.89
29049144:11:802,-2.05,3.945,11.825,1.466,3.811,-0.48,2.653,2.85,-0.025
29049144:11:802,0.39,2.074,5.902,-0.031,-4.555,-2.836,1.399,4.114,-3.305
29049144:11:802,-3.875,-1.613,13.443,0.036,-0.339,4.36,2.425,2.974,-4.911
29049144:11:802,-2.275,1.001,5.524,-3.291,-1.62,3.135,4.514,1.19,-2.474
29049144:11:802,3.062,3.815,12.872,-0.756,-3.374,-1.851,-2.487,3.732,-0.125
29049144:11:802,-0.227,2.965,12.282,-2.455,3.181,-1.303,1.414,-2.046,-1.714
29049144:11:802,0.159,1.327,5.016,0.064,3.289,2.98,0.8,-1.347,1.439
29049144:11:802,3.883,-3.417,7.171,-4.696,-0.629,-1.562,3.715,0.833,0.144
29049144:11:802,-2.495,-1.569,8.217,1.292,0.414,-0.15,-1.91,-0.986,4.346
29049144:11:802,-2.555,2.42,8.59,4.412,2.009,4.735,0.729,2.906,-2.132
29049144:11:802,-2.389,-3.949,11.909,-4.656,-1.565,0.866,4.09,1.27,-1.207
29049144:11:802,2.705,-3.358,13.22,1.521,-2.499,-3.14,-4.136,2.717,0.324
29049144:11:802,-0.59,0.686,7.281,4.468,2.63,-1.66,3.084,-1.677,-4.952
29049144:11:802,3.746,3.98,5.351,-4.466,0.731,-4.917,-2.882,-4.489,0.138
29049144:11:802,2.25,-0.611,11.871,-0.766,0.738,-4.632,-4.015,4.901,-1.708
29049144:11:802,4.548,-0.402,12.116,-3.789,-1.99,-1.903,1.673,-3.143,-0.174
29049144:11:802,3.224,0.639,12.438,3.956,0.136,1.268,3.747,-4.924,-3.457
29049144:11:802,-0.164,-0.756,14.727,1.836,0.865,0.647,-4.041,-4.17,-0.59
29049144:11:802,1.697,4.648,9.046,3.922,-4.092,-2.509,-2.543,-2.374,-3.758
29049144:11:802,2.706,0.115,14.35,2.37,2.22,-4.516,-4.555,-4.904,-4.602
29049144:11:802,3.086,0.157,6.609,-0.404,-1.229,2.476,-0.902,0.106,2.82
29049144:11:802,3.079,-2.593,12.961,-3.513,-1.139,-4.459,-4.631,2.087,-4.96
29049144:11:802,-2.025,0.687,12.947,1.099,3.098,3.487,3.58,-1.833,2.822
29049144:11:802,2.049,-1.583,5.773,-4.441,-3.774,1.222,0.585,-0.014,-0.042
29049144:11:802,-3.334,0.064,9.133,0.861,3.106,3.192,1.465,-3.29,-0.293
29049144:11:802,-3.5,-3.568,8.678,2.184,-1.29,3.341,-3.668,0.557,0.387
29049144:11:802,4.954,-4.525,10.139,-4.306,0.049,1.998,4.985,-4.599,-0.747
29049144:11:802,-2.524,-2.43,7.819,1.474,3.49,4.963,2.839,-1.436,-1.675
29049144:11:802,0.267,4.762,11.901,-2.423,-3.063,1.19,1.693,0.853,4.891
29049144:11:802,-2.625,-3.291,11.329,3.481,-3.054,-0.482,2.546,-4.203,-2.64
29049144:11:802,0.584,0.975,10.173,-1.317,2.435,4.772,3.585,4.562,-0.958
29049144:11:802,-0.408,-1.811,12.344,-4.001,-1.876,-2.227,1.067,-1.275,-0.038
29049144:11:802,-4.054,1.39,9.208,2.743,-1.557,2.162,2.387,3.896,1.134
29049144:11:802,-1.946,3.996,13.208,-3.539,1.431,-4.232,0.764,-3.785,0.914
29049144:11:802,0.027,2.573,13.602,1.732,0.857,2.012,-0.137,-2.83,-1.418
29049144:11:802,-0.651,0.741,13.268,-3.036,3.591,2.143,3.288,-4.202,-1.587
29049144:11:802,4.887,3.111,7.791,-2.054,3.529,-3.431,3.073,2.72,-0.534
29049144:11:802,3.494,0.485,12.624,-4.733,4.296,-1.064,0.771,2.474,-2.129
29049144:11:802,1.889,-1.499,5.533,-4.543,-3.311,4.903,4.081,0.036,1.01
29049144:11:802,0.252,-1.703,7.879,-2.981,-0.569,-4.34,-2.887,1.36,-2.909
29049144:11:802,3.919,-2.354,5.263,1.218,-2.286,3.807,2.711,4.749,-4.873
29049144:11:802,-4.581,1.918,11.984,2.78,-0.859,-2.818,-4.291,4.727,-1.506
29049144:11:802,2.631,-2.746,13.166,-3.752,0.289,-1.155,2.8,1.939,-2.187
29049144:11:802,4.917,-2.912,6.642,-1.242,0.939,-4.616,-3.407,-4.709,-3.595
29049144:11:802,4.933,2.504,11.674,-1.489,-0.862,4.273,-0.553,-0.301,-4.523
29049144:11:802,0.259,2.644,8.972,-3.165,0.512,-1.879,0.708,-3.485,0.559
29049144:11:802,-0.689,2.285,10.518,2.965,-1.851,-2.129,-0.885,2.212,0.334
29049144:11:802,-4.744,-0.183,12.508,0.242,0.926,-0.571,3.273,-3.556,-4.983
29049144:11:802,-4.686,0.779,13.033,-4.45,-3.267,2.172,-3.866,-2.383,-3.7
29049144:11:802,-0.502,-3.547,8.355,0.981,-2.161,-2.743,-3.314,4.695,-2.941
29049144:11:802,-4.191,-4.918,6.089,-4.368,-2.401,-2.137,2.435,-4.458,-1.82
29049144:11:802,-2.844,-3.991,7.758,4.263,2.169,-2.562,-3.761,-2.006,-1.517
29049144:11:802,-1.768,2.42,11.536,2.372,1.879,3.077,4.603,3.121,0.936
29049144:11:802,2.958,-2.379,8.253,-2.776,1.601,4.515,0.307,4.843,-2.318
29049144:11:802,3.66,3.372,5.306,-2.352,-1.186,2.837,1.325,-4.227,-0.105
29049144:11:802,1.946,-2.625,12.137,1.944,3.921,0.794,0.703,1.73,0.213
29049144:11:802,-2.998,-3.979,10.65,1.687,4.987,-2.564,0.916,1.496,-2.213
29049144:11:802,-4.078,0.213,6.475,3.381,-4.503,-2.535,3.371,-4.43,2.847
29049144:11:802,-1.658,4.944,11.469,1.878,-0.378,3.38,3.541,-1.647,3.827
29049144:11:802,3.161,-3.229,12.743,0.941,-2.03,-4.229,1.226,1.024,-4.662
29049144:11:802,4.651,-1.544,11.494,1.139,-2.458,1.279,-1.616,2.624,-1.654
29049144:11:802,1.434,-2.808,5.202,-1.499,-2.64,-0.412,-4.095,2.339,-2.806
29049144:11:802,0.965,2.779,11.834,-1.173,4.107,-4.352,-1.316,-2.717,3.963
29049144:11:802,-0.81,-3.286,10.652,-1.243,-2.942,1.864,3.056,0.528,-2.083
29049144:11:802,3.081,1.553,7.58,2.82,4.143,3.731,-1.945,3.839,1.106
29049144:11:802,-0.563,-4.232,12.348,-0.965,3.76,1.986,-2.969,0.51,-2.57
29049144:11:802,1.924,-3.628,7.527,-4.318,-1.866,0.231,-3.204,-2.097,-3.432
29049144:11:802,1.417,-0.238,10.261,1.481,0.718,3.669,-4.097,-1.692,-2.55
29049144:11:802,0.159,-1.423,6.775,3.519,0.686,0.128,-3.751,-0.945,-3.68
29049144:11:802,0.925,2.506,12.157,-0.561,-1.517,-1.094,0.64,-2.676,0.882
29049144:11:802,-3.987,-0.361,8.106,4.875,-1.463,-1.503,0.283,1.611,-2.94
29049144:11:802,-1.167,-4.654,9.935,-3.522,4.647,0.286,0.979,4.694,-3.949
